SpectraSuite Data File
++++++++++++++++++++++++++++++++++++
Date: Mon Aug 26 10:24:39 PDT 2019
User: corrico
Dark Spectrum Present: No
Reference Spectrum Present: No
Number of Sampled Component Spectra: 1
Spectrometers: USB2+H06089
Integration Time (usec): 10000 (USB2+H06089)
Spectra Averaged: 2 (USB2+H06089)
Boxcar Smoothing: 2 (USB2+H06089)
Correct for Electrical Dark: No (USB2+H06089)
Strobe/Lamp Enabled: No (USB2+H06089)
Correct for Detector Non-linearity: No (USB2+H06089)
Correct for Stray Light: No (USB2+H06089)
Number of Pixels in Processed Spectrum: 2048
>>>>>Begin Processed Spectral Data<<<<<
339.70	1039.20
340.07	1039.20
340.45	998.24
340.82	970.85
341.19	944.41
341.57	923.11
341.94	907.43
342.31	917.26
342.69	920.53
343.06	907.66
343.43	905.55
343.81	906.02
344.18	901.11
344.55	897.13
344.93	922.17
345.30	922.64
345.67	932.00
346.04	933.17
346.42	943.70
346.79	943.94
347.16	952.83
347.54	958.68
347.91	978.58
348.28	997.54
348.65	1002.69
349.03	1016.49
349.40	1039.43
349.77	1047.39
350.14	1053.01
350.52	1061.20
350.89	1064.71
351.26	1060.50
351.63	1059.56
352.01	1065.18
352.38	1077.35
352.75	1077.82
353.12	1078.05
353.50	1086.94
353.87	1074.07
354.24	1074.31
354.61	1079.92
354.98	1082.73
355.36	1082.50
355.73	1099.82
356.10	1109.41
356.47	1114.10
356.84	1116.44
357.22	1115.27
357.59	1106.14
357.96	1105.20
358.33	1095.37
358.70	1095.60
359.08	1092.56
359.45	1098.41
359.82	1090.46
360.19	1103.09
360.56	1097.01
360.94	1094.43
361.31	1090.46
361.68	1085.77
362.05	1081.56
362.42	1090.22
362.79	1093.97
363.16	1103.80
363.54	1092.56
363.91	1095.60
364.28	1100.05
364.65	1099.82
365.02	1089.29
365.39	1097.95
365.76	1093.03
366.14	1089.52
366.51	1095.14
366.88	1105.44
367.25	1108.71
367.62	1105.67
367.99	1094.90
368.36	1096.78
368.73	1089.05
369.10	1096.31
369.48	1097.95
369.85	1114.56
370.22	1111.52
370.59	1113.39
370.96	1112.22
371.33	1119.48
371.70	1107.07
372.07	1101.22
372.44	1092.33
372.81	1084.60
373.18	1075.01
373.55	1074.54
373.93	1077.35
374.30	1081.56
374.67	1089.99
375.04	1110.35
375.41	1114.33
375.78	1114.56
376.15	1120.41
376.52	1112.46
376.89	1104.26
377.26	1108.95
377.63	1112.46
378.00	1110.58
378.37	1117.61
378.74	1105.44
379.11	1102.63
379.48	1108.71
379.85	1105.90
380.22	1106.61
380.59	1123.93
380.96	1124.16
381.33	1114.80
381.70	1114.33
382.07	1102.86
382.44	1091.16
382.81	1092.09
383.18	1100.52
383.55	1100.05
383.92	1112.92
384.29	1111.29
384.66	1107.54
385.03	1096.54
385.40	1103.56
385.77	1106.61
386.14	1111.29
386.51	1123.22
386.88	1125.56
387.25	1126.03
387.62	1124.63
387.99	1121.58
388.36	1119.01
388.73	1122.52
389.10	1131.18
389.46	1132.35
389.83	1133.99
390.20	1119.95
390.57	1114.80
390.94	1098.41
391.31	1092.09
391.68	1091.39
392.05	1110.58
392.42	1118.54
392.79	1125.80
393.16	1134.22
393.53	1137.73
393.89	1130.01
394.26	1126.97
394.63	1131.41
395.00	1133.29
395.37	1136.10
395.74	1142.88
396.11	1140.78
396.48	1138.90
396.84	1127.90
397.21	1119.24
397.58	1119.71
397.95	1131.88
398.32	1138.44
398.69	1157.39
399.06	1172.37
399.42	1173.54
399.79	1170.50
400.16	1176.12
400.53	1181.50
400.90	1188.52
401.27	1184.31
401.64	1199.52
402.00	1215.44
402.37	1224.10
402.74	1229.95
403.11	1257.80
403.48	1264.36
403.84	1261.08
404.21	1274.89
404.58	1294.78
404.95	1305.78
405.32	1336.21
405.68	1365.70
406.05	1365.23
406.42	1376.00
406.79	1403.15
407.16	1408.07
407.52	1429.83
407.89	1482.73
408.26	1521.82
408.63	1553.18
408.99	1599.29
409.36	1640.72
409.73	1679.33
410.10	1733.17
410.47	1799.87
410.83	1864.94
411.20	1930.71
411.57	1998.58
411.94	2076.06
412.30	2149.31
412.67	2231.00
413.04	2324.62
413.40	2433.22
413.77	2532.46
414.14	2650.89
414.51	2771.43
414.87	2898.29
415.24	3036.61
415.61	3194.60
415.97	3331.99
416.34	3515.25
416.71	3714.90
417.08	3900.74
417.44	4096.41
417.81	4333.74
418.18	4583.71
418.54	4826.89
418.91	5120.16
419.28	5451.11
419.64	5742.04
420.01	6060.82
420.38	6405.34
420.74	6765.55
421.11	7143.78
421.48	7566.48
421.84	8003.93
422.21	8460.33
422.58	8965.89
422.94	9470.04
423.31	9990.58
423.68	10577.35
424.04	11209.06
424.41	11819.24
424.77	12416.78
425.14	13059.25
425.51	13708.28
425.87	14466.15
426.24	15228.23
426.61	16200.72
426.97	17243.19
427.34	18241.90
427.70	19297.72
428.07	20394.26
428.44	21478.39
428.80	22541.93
429.17	23665.39
429.53	24693.82
429.90	25878.13
430.27	26943.31
430.63	28152.90
431.00	29442.53
431.36	30903.50
431.73	32184.47
432.09	33585.75
432.46	34815.00
432.83	36170.64
433.19	37359.87
433.56	38891.28
433.92	40456.86
434.29	42055.21
434.65	43529.99
435.02	45000.78
435.38	46274.73
435.75	47081.51
436.11	48282.44
436.48	49334.51
436.84	50315.67
437.21	51240.41
437.57	52269.78
437.94	52949.71
438.30	53490.14
438.67	53714.12
439.03	53786.68
439.40	53875.15
439.76	53706.40
440.13	53438.18
440.49	53464.16
440.86	53140.23
441.22	52831.98
441.59	52224.37
441.95	51657.03
442.32	50691.09
442.68	49989.40
443.05	49005.90
443.41	48168.46
443.78	47172.80
444.14	46281.52
444.51	45027.23
444.87	44080.25
445.24	42797.40
445.60	41618.24
445.96	40359.26
446.33	39445.28
446.69	38163.84
447.06	37266.01
447.42	36282.98
447.79	35145.25
448.15	34052.69
448.51	33142.92
448.88	32210.69
449.24	31157.45
449.61	30540.71
449.97	29738.61
450.33	28922.94
450.70	28002.87
451.06	27366.48
451.43	26548.93
451.79	25954.90
452.15	25371.88
452.52	24884.34
452.88	24311.85
453.24	23770.48
453.61	23127.54
453.97	22488.57
454.34	21849.13
454.70	21288.81
455.06	20654.29
455.43	19979.52
455.79	19249.50
456.15	18640.73
456.52	17938.33
456.88	17385.27
457.24	16821.43
457.61	16365.03
457.97	15846.13
458.33	15303.59
458.70	14743.50
459.06	14163.52
459.42	13650.71
459.79	13112.38
460.15	12674.23
460.51	12204.26
460.88	11778.51
461.24	11365.41
461.60	10989.99
461.96	10604.27
462.33	10297.89
462.69	9965.77
463.05	9637.62
463.42	9381.34
463.78	9111.47
464.14	8804.16
464.50	8558.40
464.87	8287.60
465.23	7988.72
465.59	7735.70
465.95	7534.89
466.32	7321.66
466.68	7144.25
467.04	6978.54
467.40	6830.62
467.77	6666.08
468.13	6480.24
468.49	6321.32
468.85	6175.04
469.22	6060.12
469.58	5926.24
469.94	5824.89
470.30	5692.42
470.66	5553.86
471.03	5394.23
471.39	5281.89
471.75	5154.80
472.11	5052.51
472.47	4971.30
472.84	4854.51
473.20	4715.24
473.56	4632.15
473.92	4512.08
474.28	4407.23
474.65	4322.03
475.01	4266.56
475.37	4177.39
475.73	4102.73
476.09	4019.64
476.45	3949.89
476.81	3862.82
477.18	3780.90
477.54	3709.05
477.90	3646.32
478.26	3553.64
478.62	3465.40
478.98	3408.29
479.34	3363.82
479.71	3282.60
480.07	3252.88
480.43	3221.05
480.79	3165.34
481.15	3091.85
481.51	3032.16
481.87	2983.01
482.23	2924.50
482.59	2872.31
482.96	2839.30
483.32	2824.09
483.68	2775.88
484.04	2746.85
484.40	2713.85
484.76	2678.04
485.12	2649.49
485.48	2621.87
485.84	2591.21
486.20	2567.10
486.56	2512.80
486.92	2457.80
487.28	2409.11
487.64	2366.28
488.00	2327.43
488.37	2313.39
488.73	2282.96
489.09	2262.60
489.45	2220.00
489.81	2166.87
490.17	2142.53
490.53	2121.23
490.89	2085.42
491.25	2059.91
491.61	2049.14
491.97	2024.80
492.33	2005.37
492.69	1993.67
493.05	1972.60
493.41	1945.69
493.77	1913.39
494.13	1879.92
494.49	1838.49
494.85	1829.83
495.21	1811.81
495.57	1797.30
495.93	1777.64
496.29	1768.74
496.64	1737.15
497.00	1722.40
497.36	1689.87
497.72	1665.06
498.08	1632.06
498.44	1622.46
498.80	1592.27
499.16	1585.24
499.52	1572.14
499.88	1576.35
500.24	1563.01
500.60	1556.46
500.96	1542.41
501.32	1538.43
501.68	1521.58
502.03	1511.28
502.39	1488.35
502.75	1483.67
503.11	1469.39
503.47	1451.83
503.83	1431.00
504.19	1422.11
504.55	1402.45
504.91	1381.85
505.26	1379.04
505.62	1363.83
505.98	1370.38
506.34	1359.85
506.70	1364.53
507.06	1350.49
507.42	1351.66
507.78	1339.72
508.13	1341.83
508.49	1342.30
508.85	1343.47
509.21	1343.23
509.57	1346.28
509.93	1337.62
510.28	1324.04
510.64	1313.51
511.00	1301.10
511.36	1284.95
511.72	1284.72
512.07	1281.21
512.43	1273.95
512.79	1270.91
513.15	1273.02
513.51	1264.83
513.86	1251.48
514.22	1253.12
514.58	1250.78
514.94	1237.44
515.30	1232.99
515.65	1246.57
516.01	1232.99
516.37	1233.46
516.73	1231.59
517.08	1227.61
517.44	1223.63
517.80	1237.68
518.16	1225.97
518.51	1225.74
518.87	1224.10
519.23	1212.63
519.59	1201.63
519.94	1200.69
520.30	1198.35
520.66	1186.42
521.01	1181.27
521.37	1181.74
521.73	1180.57
522.09	1186.18
522.44	1192.50
522.80	1193.21
523.16	1188.52
523.51	1188.52
523.87	1176.82
524.23	1169.33
524.58	1156.22
524.94	1161.14
525.30	1161.84
525.65	1158.33
526.01	1158.10
526.37	1163.95
526.72	1153.18
527.08	1149.67
527.44	1157.86
527.79	1144.52
528.15	1130.95
528.51	1130.01
528.86	1132.12
529.22	1123.22
529.58	1125.56
529.93	1144.29
530.29	1144.99
530.65	1133.99
531.00	1137.03
531.36	1140.78
531.71	1140.07
532.07	1136.56
532.43	1154.12
532.78	1158.33
533.14	1162.78
533.49	1159.50
533.85	1177.52
534.21	1168.63
534.56	1169.80
534.92	1167.23
535.27	1161.37
535.63	1152.48
535.98	1147.80
536.34	1141.71
536.69	1141.71
537.05	1146.16
537.41	1134.22
537.76	1139.14
538.12	1139.61
538.47	1143.59
538.83	1138.90
539.18	1145.93
539.54	1139.14
539.89	1133.05
540.25	1127.67
540.60	1129.31
540.96	1129.78
541.31	1127.44
541.67	1126.50
542.02	1126.97
542.38	1132.59
542.73	1131.88
543.09	1138.44
543.44	1140.54
543.80	1140.78
544.15	1137.97
544.51	1132.82
544.86	1125.10
545.22	1138.90
545.57	1135.39
545.93	1129.54
546.28	1125.10
546.64	1125.33
546.99	1113.63
547.35	1126.03
547.70	1137.50
548.05	1143.82
548.41	1150.14
548.76	1143.12
549.12	1138.90
549.47	1137.73
549.83	1135.16
550.18	1132.82
550.53	1136.80
550.89	1136.10
551.24	1119.48
551.60	1118.54
551.95	1110.58
552.30	1114.56
552.66	1113.39
553.01	1118.78
553.37	1109.18
553.72	1118.31
554.07	1108.71
554.43	1100.29
554.78	1100.99
555.13	1118.31
555.49	1117.37
555.84	1130.01
556.19	1139.84
556.55	1142.18
556.90	1139.14
557.26	1133.29
557.61	1128.37
557.96	1126.03
558.32	1130.48
558.67	1130.24
559.02	1137.50
559.37	1129.78
559.73	1127.90
560.08	1112.69
560.43	1111.99
560.79	1103.33
561.14	1105.44
561.49	1106.14
561.85	1111.75
562.20	1105.67
562.55	1107.07
562.90	1106.84
563.26	1105.67
563.61	1102.39
563.96	1097.95
564.32	1099.82
564.67	1107.78
565.02	1111.75
565.37	1117.14
565.73	1121.12
566.08	1121.35
566.43	1123.93
566.78	1119.01
567.14	1122.75
567.49	1119.01
567.84	1115.97
568.19	1118.54
568.54	1115.03
568.90	1118.07
569.25	1127.20
569.60	1127.44
569.95	1104.26
570.31	1110.35
570.66	1103.33
571.01	1101.46
571.36	1108.71
571.71	1118.07
572.06	1116.90
572.42	1111.75
572.77	1116.44
573.12	1101.46
573.47	1103.56
573.82	1095.60
574.18	1108.24
574.53	1096.31
574.88	1111.75
575.23	1111.99
575.58	1119.48
575.93	1117.37
576.28	1119.95
576.64	1111.05
576.99	1108.48
577.34	1097.71
577.69	1101.92
578.04	1109.88
578.39	1105.20
578.74	1102.63
579.09	1100.29
579.44	1094.20
579.80	1087.41
580.15	1076.41
580.50	1075.01
580.85	1080.86
581.20	1082.50
581.55	1075.24
581.90	1096.54
582.25	1100.05
582.60	1108.71
582.95	1105.90
583.30	1108.71
583.65	1104.97
584.00	1111.75
584.35	1118.54
584.71	1123.69
585.06	1132.35
585.41	1134.69
585.76	1125.56
586.11	1116.44
586.46	1100.52
586.81	1097.24
587.16	1100.52
587.51	1108.01
587.86	1101.22
588.21	1111.99
588.56	1109.88
588.91	1104.73
589.26	1104.26
589.61	1108.48
589.96	1109.18
590.31	1107.78
590.66	1106.84
591.01	1110.58
591.36	1111.75
591.71	1110.35
592.06	1108.24
592.41	1107.78
592.76	1101.22
593.10	1094.90
593.45	1093.97
593.80	1100.99
594.15	1106.14
594.50	1104.73
594.85	1110.58
595.20	1116.67
595.55	1117.37
595.90	1106.84
596.25	1105.90
596.60	1107.78
596.95	1100.52
597.30	1096.54
597.64	1151.08
597.99	1154.82
598.34	1153.88
598.69	1150.84
599.04	1159.74
599.39	1113.63
599.74	1115.27
600.09	1112.92
600.44	1122.75
600.78	1118.31
601.13	1125.33
601.48	1118.07
601.83	1124.63
602.18	1115.50
602.53	1125.33
602.88	1119.95
603.22	1128.14
603.57	1120.65
603.92	1122.29
604.27	1109.88
604.62	1107.07
604.97	1113.63
605.31	1122.52
605.66	1126.73
606.01	1131.41
606.36	1129.54
606.71	1117.14
607.05	1101.92
607.40	1088.82
607.75	1088.35
608.10	1089.05
608.44	1084.37
608.79	1093.03
609.14	1104.50
609.49	1099.12
609.84	1097.95
610.18	1115.03
610.53	1109.18
610.88	1115.03
611.23	1115.50
611.57	1124.16
611.92	1111.05
612.27	1112.22
612.62	1108.01
612.96	1108.48
613.31	1097.48
613.66	1093.03
614.00	1094.43
614.35	1098.65
614.70	1095.14
615.05	1093.50
615.39	1088.58
615.74	1091.86
616.09	1088.82
616.43	1082.73
616.78	1083.43
617.13	1087.18
617.47	1089.05
617.82	1077.11
618.17	1080.39
618.51	1085.54
618.86	1095.84
619.21	1094.90
619.55	1101.92
619.90	1106.37
620.25	1099.35
620.59	1098.88
620.94	1087.65
621.29	1084.60
621.63	1082.73
621.98	1087.88
622.32	1084.84
622.67	1094.67
623.02	1101.69
623.36	1106.14
623.71	1107.54
624.05	1105.44
624.40	1106.61
624.75	1108.48
625.09	1103.56
625.44	1108.48
625.78	1102.39
626.13	1110.58
626.48	1107.54
626.82	1120.41
627.17	1106.37
627.51	1113.63
627.86	1098.18
628.20	1092.56
628.55	1087.18
628.89	1101.22
629.24	1110.12
629.58	1106.61
629.93	1111.05
630.28	1111.05
630.62	1108.71
630.97	1094.90
631.31	1107.07
631.66	1105.90
632.00	1101.46
632.35	1089.75
632.69	1097.24
633.04	1097.71
633.38	1086.71
633.73	1077.35
634.07	1087.88
634.42	1088.35
634.76	1081.33
635.11	1093.50
635.45	1106.14
635.79	1096.31
636.14	1096.07
636.48	1097.48
636.83	1094.20
637.17	1093.50
637.52	1095.14
637.86	1090.92
638.21	1092.56
638.55	1098.65
638.89	1096.78
639.24	1095.37
639.58	1091.86
639.93	1086.01
640.27	1079.22
640.61	1082.97
640.96	1089.75
641.30	1099.35
641.65	1105.44
641.99	1108.01
642.33	1106.37
642.68	1106.84
643.02	1097.71
643.37	1100.52
643.71	1100.52
644.05	1097.71
644.40	1103.56
644.74	1103.09
645.08	1094.43
645.43	1092.33
645.77	1089.99
646.11	1074.77
646.46	1067.52
646.80	1071.50
647.14	1076.18
647.49	1068.45
647.83	1092.09
648.17	1099.58
648.52	1106.37
648.86	1096.78
649.20	1108.95
649.55	1086.94
649.89	1092.33
650.23	1088.12
650.57	1096.31
650.92	1096.07
651.26	1108.01
651.60	1115.50
651.95	1108.48
652.29	1104.03
652.63	1101.92
652.97	1098.65
653.32	1084.37
653.66	1091.39
654.00	1091.63
654.34	1089.29
654.69	1094.67
655.03	1108.95
655.37	1103.33
655.71	1104.50
656.05	1114.33
656.40	1100.52
656.74	1094.20
657.08	1099.58
657.42	1102.86
657.76	1093.26
658.11	1098.65
658.45	1099.35
658.79	1091.16
659.13	1087.41
659.47	1095.37
659.82	1090.69
660.16	1101.92
660.50	1113.86
660.84	1111.52
661.18	1101.92
661.52	1102.86
661.87	1079.92
662.21	1075.01
662.55	1076.41
662.89	1082.97
663.23	1094.20
663.57	1106.84
663.91	1108.01
664.25	1107.31
664.60	1107.07
664.94	1097.01
665.28	1093.73
665.62	1085.31
665.96	1079.46
666.30	1072.20
666.64	1061.43
666.98	1062.60
667.32	1067.05
667.66	1076.88
668.01	1079.69
668.35	1089.99
668.69	1080.86
669.03	1082.97
669.37	1081.56
669.71	1075.71
670.05	1069.39
670.39	1069.16
670.73	1064.48
671.07	1065.65
671.41	1069.62
671.75	1079.22
672.09	1076.65
672.43	1079.69
672.77	1068.22
673.11	1074.54
673.45	1073.37
673.79	1087.65
674.13	1093.26
674.47	1110.58
674.81	1105.44
675.15	1101.22
675.49	1093.97
675.83	1094.90
676.17	1091.63
676.51	1090.92
676.85	1093.73
677.19	1091.63
677.53	1080.39
677.87	1069.39
678.21	1074.31
678.55	1071.26
678.89	1083.67
679.23	1087.88
679.57	1091.63
679.90	1096.07
680.24	1103.56
680.58	1091.63
680.92	1093.97
681.26	1093.50
681.60	1080.16
681.94	1070.56
682.28	1076.41
682.62	1072.67
682.96	1077.11
683.29	1077.58
683.63	1082.26
683.97	1073.84
684.31	1073.37
684.65	1078.28
684.99	1071.26
685.33	1069.16
685.67	1076.65
686.00	1070.33
686.34	1066.82
686.68	1076.41
687.02	1072.43
687.36	1077.11
687.70	1085.77
688.03	1080.63
688.37	1083.67
688.71	1087.18
689.05	1073.37
689.39	1076.18
689.72	1083.90
690.06	1078.99
690.40	1076.88
690.74	1081.80
691.08	1082.97
691.41	1071.97
691.75	1083.90
692.09	1092.33
692.43	1096.78
692.76	1097.71
693.10	1099.35
693.44	1097.01
693.78	1093.50
694.11	1089.52
694.45	1086.94
694.79	1086.71
695.13	1072.20
695.46	1082.26
695.80	1084.84
696.14	1079.69
696.48	1084.14
696.81	1094.20
697.15	1086.24
697.49	1088.35
697.82	1094.67
698.16	1104.73
698.50	1095.37
698.83	1093.97
699.17	1092.09
699.51	1080.16
699.84	1068.69
700.18	1086.24
700.52	1082.03
700.85	1084.60
701.19	1094.43
701.53	1094.90
701.86	1090.69
702.20	1096.78
702.54	1097.48
702.87	1103.33
703.21	1098.41
703.55	1093.97
703.88	1091.16
704.22	1091.39
704.55	1075.24
704.89	1078.05
705.23	1076.41
705.56	1081.80
705.90	1085.31
706.23	1101.22
706.57	1108.71
706.91	1103.56
707.24	1098.65
707.58	1088.12
707.91	1074.07
708.25	1062.14
708.58	1072.90
708.92	1074.31
709.26	1071.73
709.59	1082.73
709.93	1087.18
710.26	1083.67
710.60	1083.43
710.93	1098.88
711.27	1090.46
711.60	1099.58
711.94	1096.78
712.27	1095.37
712.61	1084.60
712.94	1082.03
713.28	1073.84
713.61	1078.28
713.95	1072.90
714.28	1083.43
714.62	1088.58
714.95	1086.24
715.29	1083.90
715.62	1091.86
715.96	1086.24
716.29	1088.82
716.63	1089.99
716.96	1084.84
717.29	1078.28
717.63	1066.82
717.96	1057.22
718.30	1061.20
718.63	1072.67
718.97	1085.54
719.30	1096.54
719.63	1103.33
719.97	1084.60
720.30	1080.16
720.64	1072.90
720.97	1065.88
721.30	1066.58
721.64	1085.54
721.97	1086.94
722.31	1087.41
722.64	1086.94
722.97	1087.65
723.31	1085.54
723.64	1078.28
723.97	1074.54
724.31	1074.31
724.64	1072.43
724.98	1062.84
725.31	1061.43
725.64	1061.67
725.98	1067.05
726.31	1070.56
726.64	1076.65
726.97	1085.31
727.31	1082.50
727.64	1082.03
727.97	1078.75
728.31	1073.60
728.64	1073.14
728.97	1076.18
729.31	1073.84
729.64	1081.56
729.97	1091.16
730.30	1092.33
730.64	1094.43
730.97	1097.48
731.30	1092.09
731.63	1090.69
731.97	1081.33
732.30	1093.50
732.63	1094.43
732.96	1093.03
733.30	1092.80
733.63	1100.52
733.96	1091.39
734.29	1092.80
734.63	1093.50
734.96	1092.80
735.29	1086.01
735.62	1083.67
735.95	1077.35
736.29	1080.63
736.62	1085.54
736.95	1084.37
737.28	1080.16
737.61	1092.56
737.94	1092.80
738.28	1090.22
738.61	1099.58
738.94	1107.78
739.27	1095.84
739.60	1090.69
739.93	1086.24
740.27	1077.11
740.60	1067.28
740.93	1072.20
741.26	1079.22
741.59	1077.58
741.92	1077.35
742.25	1089.99
742.58	1084.37
742.91	1073.60
743.25	1085.54
743.58	1101.92
743.91	1102.16
744.24	1098.65
744.57	1110.12
744.90	1099.82
745.23	1088.12
745.56	1088.35
745.89	1091.16
746.22	1093.50
746.55	1099.82
746.88	1099.35
747.21	1090.92
747.54	1091.16
747.87	1089.52
748.20	1089.75
748.53	1097.48
748.87	1101.46
749.20	1104.26
749.53	1098.18
749.86	1096.31
750.19	1086.01
750.52	1077.35
750.85	1076.65
751.18	1079.92
751.51	1076.65
751.84	1081.09
752.16	1082.26
752.49	1083.90
752.82	1081.80
753.15	1087.18
753.48	1085.54
753.81	1079.92
754.14	1082.03
754.47	1089.75
754.80	1089.29
755.13	1087.65
755.46	1082.97
755.79	1081.56
756.12	1074.07
756.45	1074.07
756.78	1072.20
757.11	1082.26
757.43	1088.82
757.76	1089.99
758.09	1093.03
758.42	1092.56
758.75	1104.26
759.08	1099.58
759.41	1097.48
759.74	1083.90
760.07	1074.77
760.39	1057.92
760.72	1055.58
761.05	1059.09
761.38	1067.52
761.71	1082.50
762.04	1095.37
762.36	1089.05
762.69	1080.86
763.02	1078.28
763.35	1075.94
763.68	1072.67
764.01	1069.86
764.33	1073.37
764.66	1076.65
764.99	1074.07
765.32	1073.37
765.65	1080.86
765.97	1079.22
766.30	1070.80
766.63	1073.37
766.96	1075.01
767.28	1076.18
767.61	1081.80
767.94	1096.54
768.27	1091.86
768.59	1085.77
768.92	1081.80
769.25	1084.37
769.58	1064.48
769.90	1064.48
770.23	1064.24
770.56	1063.07
770.89	1058.86
771.21	1070.09
771.54	1077.11
771.87	1072.20
772.19	1075.24
772.52	1064.71
772.85	1059.79
773.17	1056.99
773.50	1064.01
773.83	1068.69
774.15	1074.54
774.48	1075.24
774.81	1077.11
775.13	1078.75
775.46	1070.56
775.79	1066.82
776.11	1084.14
776.44	1083.43
776.77	1079.46
777.09	1073.84
777.42	1084.84
777.74	1071.03
778.07	1076.18
778.40	1073.84
778.72	1079.92
779.05	1074.07
779.37	1073.60
779.70	1071.26
780.03	1080.39
780.35	1086.01
780.68	1088.82
781.00	1092.80
781.33	1091.86
781.65	1094.90
781.98	1084.60
782.31	1076.18
782.63	1080.39
782.96	1078.99
783.28	1073.84
783.61	1088.35
783.93	1096.31
784.26	1087.88
784.58	1082.03
784.91	1082.73
785.23	1074.77
785.56	1077.58
785.88	1084.84
786.21	1093.73
786.53	1098.41
786.86	1105.44
787.18	1105.67
787.51	1097.24
787.83	1091.16
788.16	1087.65
788.48	1079.46
788.81	1083.43
789.13	1089.05
789.46	1087.18
789.78	1085.07
790.10	1089.99
790.43	1078.75
790.75	1078.28
791.08	1078.99
791.40	1073.60
791.73	1068.22
792.05	1071.26
792.37	1074.31
792.70	1081.33
793.02	1087.41
793.35	1082.50
793.67	1086.71
793.99	1078.75
794.32	1069.86
794.64	1072.67
794.96	1076.41
795.29	1080.16
795.61	1087.65
795.93	1086.24
796.26	1083.43
796.58	1097.48
796.91	1083.90
797.23	1084.37
797.55	1096.31
797.87	1099.12
798.20	1086.71
798.52	1086.94
798.84	1078.75
799.17	1076.18
799.49	1066.11
799.81	1064.94
800.14	1067.75
800.46	1066.35
800.78	1064.48
801.10	1062.60
801.43	1075.94
801.75	1075.48
802.07	1076.18
802.40	1078.52
802.72	1080.86
803.04	1063.31
803.36	1067.28
803.69	1056.75
804.01	1053.94
804.33	1058.62
804.65	1064.24
804.97	1057.45
805.30	1072.43
805.62	1068.92
805.94	1054.18
806.26	1052.54
806.58	1048.09
806.91	1037.79
807.23	1042.24
807.55	1067.28
807.87	1080.16
808.19	1090.69
808.52	1089.75
808.84	1085.31
809.16	1068.22
809.48	1060.96
809.80	1059.09
810.12	1071.97
810.44	1074.54
810.77	1082.73
811.09	1091.39
811.41	1094.20
811.73	1095.84
812.05	1092.33
812.37	1091.39
812.69	1086.48
813.01	1079.22
813.33	1071.73
813.66	1075.48
813.98	1080.16
814.30	1075.01
814.62	1076.88
814.94	1090.92
815.26	1093.50
815.58	1082.73
815.90	1092.33
816.22	1091.39
816.54	1082.97
816.86	1078.28
817.18	1091.86
817.50	1082.03
817.82	1086.48
818.14	1078.52
818.46	1085.31
818.78	1078.28
819.10	1075.01
819.42	1077.35
819.74	1075.24
820.06	1073.14
820.38	1063.07
820.70	1067.75
821.02	1064.48
821.34	1069.62
821.66	1070.09
821.98	1072.20
822.30	1068.92
822.62	1071.03
822.94	1074.77
823.26	1073.84
823.58	1084.60
823.90	1089.05
824.22	1085.31
824.54	1073.60
824.86	1070.33
825.18	1068.45
825.50	1071.50
825.81	1072.90
826.13	1078.52
826.45	1081.80
826.77	1087.41
827.09	1080.16
827.41	1079.46
827.73	1085.31
828.05	1084.37
828.36	1076.65
828.68	1080.63
829.00	1080.39
829.32	1080.63
829.64	1083.20
829.96	1075.24
830.28	1066.11
830.59	1073.37
830.91	1079.92
831.23	1076.65
831.55	1075.94
831.87	1073.60
832.19	1068.45
832.50	1064.24
832.82	1059.79
833.14	1067.75
833.46	1079.22
833.78	1087.18
834.09	1078.05
834.41	1075.94
834.73	1081.33
835.05	1084.84
835.36	1077.58
835.68	1081.09
836.00	1085.31
836.32	1090.46
836.63	1086.71
836.95	1086.48
837.27	1093.73
837.59	1085.31
837.90	1079.92
838.22	1079.69
838.54	1080.86
838.85	1070.80
839.17	1073.37
839.49	1076.18
839.80	1083.20
840.12	1078.28
840.44	1078.75
840.76	1082.97
841.07	1069.39
841.39	1070.09
841.71	1077.58
842.02	1078.28
842.34	1079.69
842.65	1091.63
842.97	1075.94
843.29	1070.80
843.60	1066.58
843.92	1067.05
844.24	1070.56
844.55	1078.28
844.87	1073.37
845.18	1081.56
845.50	1082.97
845.82	1071.97
846.13	1067.28
846.45	1078.05
846.76	1078.28
847.08	1078.75
847.40	1081.09
847.71	1070.09
848.03	1057.69
848.34	1056.05
848.66	1059.79
848.97	1064.01
849.29	1078.52
849.60	1079.22
849.92	1079.46
850.24	1079.22
850.55	1071.03
850.87	1066.82
851.18	1068.45
851.50	1067.28
851.81	1063.77
852.13	1071.97
852.44	1070.33
852.76	1075.94
853.07	1076.65
853.39	1082.50
853.70	1080.63
854.01	1087.18
854.33	1085.77
854.64	1093.03
854.96	1081.33
855.27	1078.28
855.59	1064.48
855.90	1064.24
856.22	1070.09
856.53	1074.31
856.84	1076.18
857.16	1089.29
857.47	1086.01
857.79	1074.07
858.10	1073.84
858.41	1070.80
858.73	1069.16
859.04	1079.92
859.36	1081.56
859.67	1075.01
859.98	1076.18
860.30	1075.48
860.61	1077.35
860.92	1065.18
861.24	1074.77
861.55	1074.54
861.87	1083.90
862.18	1085.31
862.49	1093.97
862.81	1089.99
863.12	1085.31
863.43	1082.50
863.74	1066.35
864.06	1069.62
864.37	1077.11
864.68	1097.01
865.00	1086.24
865.31	1093.50
865.62	1093.97
865.94	1083.67
866.25	1074.07
866.56	1081.56
866.87	1074.77
867.19	1077.11
867.50	1083.90
867.81	1078.05
868.12	1077.35
868.44	1091.86
868.75	1087.65
869.06	1090.69
869.37	1094.67
869.68	1088.35
870.00	1075.71
870.31	1070.56
870.62	1071.97
870.93	1073.84
871.24	1082.97
871.56	1086.71
871.87	1094.90
872.18	1099.12
872.49	1092.09
872.80	1092.33
873.12	1098.41
873.43	1090.22
873.74	1080.63
874.05	1089.29
874.36	1081.56
874.67	1073.84
874.98	1076.41
875.29	1079.69
875.61	1064.71
875.92	1074.07
876.23	1075.71
876.54	1077.82
876.85	1071.97
877.16	1081.33
877.47	1078.28
877.78	1082.73
878.09	1080.39
878.40	1086.01
878.72	1084.60
879.03	1079.69
879.34	1077.35
879.65	1091.16
879.96	1090.22
880.27	1095.60
880.58	1103.56
880.89	1093.26
881.20	1073.14
881.51	1065.18
881.82	1049.73
882.13	1037.33
882.44	1044.58
882.75	1053.01
883.06	1066.35
883.37	1082.26
883.68	1084.60
883.99	1093.50
884.30	1091.16
884.61	1081.80
884.92	1074.07
885.23	1088.35
885.54	1086.71
885.85	1086.94
886.16	1086.48
886.47	1085.54
886.78	1072.43
887.08	1060.26
887.39	1062.60
887.70	1067.05
888.01	1075.94
888.32	1082.50
888.63	1107.54
888.94	1104.26
889.25	1103.33
889.56	1097.95
889.87	1096.31
890.17	1073.84
890.48	1080.16
890.79	1072.67
891.10	1076.88
891.41	1079.92
891.72	1080.63
892.03	1070.80
892.34	1085.77
892.64	1086.94
892.95	1072.43
893.26	1075.94
893.57	1083.20
893.88	1068.69
894.18	1066.35
894.49	1072.43
894.80	1068.45
895.11	1078.99
895.42	1086.24
895.72	1091.63
896.03	1100.99
896.34	1102.86
896.65	1086.48
896.96	1085.54
897.26	1083.90
897.57	1083.67
897.88	1088.58
898.19	1092.80
898.49	1092.56
898.80	1082.26
899.11	1071.97
899.41	1058.86
899.72	1056.99
900.03	1059.09
900.34	1064.24
900.64	1066.58
900.95	1074.31
901.26	1075.48
901.56	1074.07
901.87	1078.75
902.18	1088.35
902.48	1089.75
902.79	1086.71
903.10	1082.26
903.40	1086.01
903.71	1086.24
904.02	1073.14
904.32	1070.09
904.63	1070.80
904.94	1062.60
905.24	1054.41
905.55	1065.65
905.85	1069.16
906.16	1072.43
906.47	1069.86
906.77	1070.80
907.08	1070.80
907.38	1068.92
907.69	1061.20
908.00	1058.16
908.30	1055.11
908.61	1059.79
908.91	1065.88
909.22	1064.71
909.52	1061.43
909.83	1064.94
910.14	1069.62
910.44	1075.24
910.75	1081.09
911.05	1081.56
911.36	1078.75
911.66	1079.69
911.97	1076.88
912.27	1084.84
912.58	1092.80
912.88	1096.78
913.19	1086.01
913.49	1081.33
913.80	1079.92
914.10	1076.18
914.41	1076.18
914.71	1083.43
915.01	1092.80
915.32	1091.63
915.62	1096.54
915.93	1094.90
916.23	1092.80
916.54	1086.48
916.84	1078.28
917.15	1077.35
917.45	1084.37
917.75	1084.60
918.06	1091.86
918.36	1110.58
918.67	1118.78
918.97	1117.84
919.27	1114.56
919.58	1108.71
919.88	1089.99
920.18	1082.73
920.49	1081.09
920.79	1080.39
921.10	1078.75
921.40	1087.18
921.70	1093.26
922.01	1094.20
922.31	1099.35
922.61	1106.14
922.92	1097.01
923.22	1087.18
923.52	1075.01
923.82	1067.05
924.13	1059.79
924.43	1066.11
924.73	1066.11
925.04	1085.07
925.34	1084.60
925.64	1070.33
925.94	1070.56
926.25	1075.71
926.55	1065.88
926.85	1071.26
927.15	1088.58
927.46	1091.16
927.76	1089.05
928.06	1089.29
928.36	1083.20
928.67	1071.73
928.97	1074.77
929.27	1069.16
929.57	1061.43
929.87	1063.54
930.18	1079.69
930.48	1068.92
930.78	1073.84
931.08	1082.73
931.38	1086.24
931.69	1068.22
931.99	1073.60
932.29	1075.01
932.59	1070.33
932.89	1073.84
933.19	1086.24
933.49	1081.09
933.80	1088.58
934.10	1090.69
934.40	1087.18
934.70	1084.84
935.00	1088.58
935.30	1084.37
935.60	1084.84
935.90	1086.94
936.20	1080.16
936.50	1083.43
936.81	1082.03
937.11	1079.22
937.41	1069.86
937.71	1074.07
938.01	1068.45
938.31	1068.22
938.61	1061.67
938.91	1071.03
939.21	1064.48
939.51	1074.54
939.81	1070.33
940.11	1082.50
940.41	1085.77
940.71	1096.54
941.01	1085.54
941.31	1088.82
941.61	1081.80
941.91	1080.16
942.21	1083.43
942.51	1083.20
942.81	1083.67
943.11	1086.48
943.41	1082.26
943.71	1078.28
944.01	1081.09
944.31	1081.56
944.61	1084.84
944.90	1079.92
945.20	1081.80
945.50	1085.77
945.80	1080.63
946.10	1074.77
946.40	1086.94
946.70	1078.28
947.00	1077.58
947.30	1085.07
947.60	1093.73
947.89	1079.46
948.19	1085.77
948.49	1086.94
948.79	1088.82
949.09	1083.90
949.39	1087.18
949.69	1089.99
949.98	1083.20
950.28	1078.99
950.58	1078.75
950.88	1081.80
951.18	1077.35
951.48	1078.05
951.77	1071.50
952.07	1071.50
952.37	1074.54
952.67	1077.58
952.97	1084.60
953.26	1093.50
953.56	1099.58
953.86	1093.73
954.16	1096.54
954.45	1089.99
954.75	1088.12
955.05	1081.33
955.35	1083.90
955.64	1076.65
955.94	1077.58
956.24	1078.52
956.54	1075.71
956.83	1069.86
957.13	1068.92
957.43	1073.37
957.72	1074.07
958.02	1082.03
958.32	1086.71
958.61	1097.95
958.91	1096.78
959.21	1096.31
959.50	1089.29
959.80	1085.54
960.10	1066.82
960.39	1059.09
960.69	1045.28
960.99	1042.71
961.28	1045.99
961.58	1059.79
961.87	1070.80
962.17	1078.28
962.47	1080.39
962.76	1081.09
963.06	1073.84
963.36	1064.71
963.65	1065.41
963.95	1058.62
964.24	1054.41
964.54	1066.35
964.83	1070.80
965.13	1073.37
965.42	1087.88
965.72	1081.80
966.02	1068.69
966.31	1074.54
966.61	1066.11
966.90	1060.73
967.20	1064.48
967.49	1069.86
967.79	1060.96
968.08	1071.97
968.38	1078.75
968.67	1083.90
968.97	1087.41
969.26	1087.65
969.56	1084.14
969.85	1075.94
970.15	1074.31
970.44	1067.28
970.74	1073.37
971.03	1067.28
971.32	1067.28
971.62	1075.94
971.91	1083.43
972.21	1077.82
972.50	1083.20
972.80	1091.39
973.09	1089.05
973.38	1082.73
973.68	1086.94
973.97	1080.86
974.27	1075.94
974.56	1076.65
974.85	1078.99
975.15	1067.75
975.44	1083.20
975.73	1085.07
976.03	1081.56
976.32	1080.39
976.61	1086.94
976.91	1074.77
977.20	1075.01
977.49	1074.07
977.79	1073.84
978.08	1075.94
978.37	1073.60
978.67	1067.75
978.96	1069.16
979.25	1066.35
979.55	1069.39
979.84	1067.75
980.13	1066.35
980.42	1059.79
980.72	1067.75
981.01	1068.22
981.30	1075.24
981.59	1069.86
981.89	1082.73
982.18	1078.28
982.47	1074.77
982.76	1077.11
983.06	1085.54
983.35	1078.99
983.64	1075.48
983.93	1075.94
984.22	1072.67
984.52	1067.75
984.81	1068.69
985.10	1075.24
985.39	1074.31
985.68	1074.31
985.97	1083.67
986.27	1086.71
986.56	1083.43
986.85	1080.63
987.14	1083.20
987.43	1080.16
987.72	1084.84
988.01	1094.90
988.31	1096.54
988.60	1085.54
988.89	1091.86
989.18	1083.43
989.47	1077.82
989.76	1075.48
990.05	1086.01
990.34	1081.56
990.63	1092.33
990.92	1083.43
991.21	1085.54
991.51	1086.01
991.80	1084.84
992.09	1075.24
992.38	1080.39
992.67	1081.09
992.96	1086.24
993.25	1079.92
993.54	1080.39
993.83	1077.35
994.12	1073.60
994.41	1071.97
994.70	1078.75
994.99	1090.46
995.28	1095.84
995.57	1095.37
995.86	1095.14
996.15	1098.41
996.44	1082.03
996.73	1081.33
997.02	1086.48
997.31	1083.43
997.59	1078.05
997.88	1075.48
998.17	1079.22
998.46	1080.39
998.75	1082.97
999.04	1089.05
999.33	1096.78
999.62	1093.73
999.91	1082.26
1000.20	1077.58
1000.49	1073.14
1000.77	1071.26
1001.06	1078.52
1001.35	1081.80
1001.64	1081.09
1001.93	1081.09
1002.22	1083.67
1002.51	1071.26
1002.79	1068.92
1003.08	1070.09
1003.37	1065.65
1003.66	1064.94
1003.95	1067.75
1004.23	1078.99
1004.52	1078.99
1004.81	1085.54
1005.10	1083.43
1005.39	1088.82
1005.67	1096.78
1005.96	1102.86
1006.25	1098.65
1006.54	1104.97
1006.83	1104.03
1007.11	1101.69
1007.40	1097.48
1007.69	1094.43
1007.97	1101.22
1008.26	1091.39
1008.55	1086.24
1008.84	1088.82
1009.12	1095.84
1009.41	1083.20
1009.70	1086.24
1009.98	1089.05
1010.27	1084.14
1010.56	1078.75
1010.85	1077.58
1011.13	1075.94
1011.42	1071.03
1011.71	1065.65
1011.99	1072.43
1012.28	1067.99
1012.56	1068.92
1012.85	1074.54
1013.14	1075.94
1013.42	1072.43
1013.71	1071.97
1014.00	1079.69
1014.28	1071.97
1014.57	1080.16
1014.85	1075.94
1015.14	1075.94
1015.43	1071.73
1015.71	1074.31
1016.00	1064.48
1016.28	1061.43
1016.57	1060.26
1016.85	1060.03
1017.14	1052.30
1017.43	1062.84
1017.71	1064.01
1018.00	1074.31
1018.28	1078.28
1018.57	1087.88
1018.85	1082.73
1019.14	1092.09
1019.42	1087.41
1019.71	1090.92
1019.99	1088.12
1020.28	1093.26
1020.56	1097.95
1020.85	1098.88
1021.13	1102.86
1021.42	1101.92
1021.70	1095.84
1021.99	1083.20
1022.27	1082.97
1022.55	1062.60
1022.84	1071.97
>>>>>End Processed Spectral Data<<<<<
