SpectraSuite Data File
++++++++++++++++++++++++++++++++++++
Date: Mon Aug 26 10:24:40 PDT 2019
User: corrico
Dark Spectrum Present: No
Reference Spectrum Present: No
Number of Sampled Component Spectra: 1
Spectrometers: USB2+H06089
Integration Time (usec): 10000 (USB2+H06089)
Spectra Averaged: 2 (USB2+H06089)
Boxcar Smoothing: 2 (USB2+H06089)
Correct for Electrical Dark: No (USB2+H06089)
Strobe/Lamp Enabled: No (USB2+H06089)
Correct for Detector Non-linearity: No (USB2+H06089)
Correct for Stray Light: No (USB2+H06089)
Number of Pixels in Processed Spectrum: 2048
>>>>>Begin Processed Spectral Data<<<<<
339.70	1029.84
340.07	1029.84
340.45	990.98
340.82	975.07
341.19	948.62
341.57	923.34
341.94	901.34
342.31	899.00
342.69	888.47
343.06	882.85
343.43	880.74
343.81	896.66
344.18	900.87
344.55	900.87
344.93	908.60
345.30	910.94
345.67	918.89
346.04	936.68
346.42	944.41
346.79	950.96
347.16	963.13
347.54	963.13
347.91	966.41
348.28	986.07
348.65	996.37
349.03	1009.71
349.40	1021.64
349.77	1029.60
350.14	1030.77
350.52	1042.01
350.89	1048.09
351.26	1054.88
351.63	1062.37
352.01	1070.56
352.38	1075.48
352.75	1080.63
353.12	1085.54
353.50	1089.52
353.87	1096.78
354.24	1101.22
354.61	1102.39
354.98	1097.24
355.36	1090.69
355.73	1087.88
356.10	1096.07
356.47	1103.33
356.84	1104.73
357.22	1111.99
357.59	1112.69
357.96	1118.54
358.33	1109.18
358.70	1107.54
359.08	1111.52
359.45	1108.24
359.82	1104.50
360.19	1113.63
360.56	1121.58
360.94	1108.24
361.31	1104.50
361.68	1092.09
362.05	1077.58
362.42	1066.35
362.79	1074.77
363.16	1082.03
363.54	1085.07
363.91	1095.37
364.28	1108.95
364.65	1106.14
365.02	1097.95
365.39	1094.67
365.76	1099.58
366.14	1095.60
366.51	1100.75
366.88	1105.67
367.25	1112.22
367.62	1105.20
367.99	1104.97
368.36	1090.46
368.73	1096.78
369.10	1085.07
369.48	1078.05
369.85	1078.75
370.22	1091.63
370.59	1089.52
370.96	1094.90
371.33	1102.63
371.70	1099.58
372.07	1088.35
372.44	1086.71
372.81	1090.69
373.18	1089.29
373.55	1099.12
373.93	1112.92
374.30	1111.75
374.67	1114.80
375.04	1114.56
375.41	1105.90
375.78	1103.80
376.15	1107.78
376.52	1100.29
376.89	1108.01
377.26	1110.12
377.63	1104.26
378.00	1096.31
378.37	1098.65
378.74	1089.05
379.11	1088.82
379.48	1097.71
379.85	1101.46
380.22	1105.20
380.59	1110.35
380.96	1114.33
381.33	1100.52
381.70	1096.31
382.07	1096.07
382.44	1103.33
382.81	1101.92
383.18	1112.69
383.55	1120.18
383.92	1122.05
384.29	1117.84
384.66	1126.03
385.03	1131.65
385.40	1118.54
385.77	1110.82
386.14	1102.63
386.51	1100.99
386.88	1097.24
387.25	1100.75
387.62	1113.63
387.99	1115.50
388.36	1107.31
388.73	1109.88
389.10	1116.20
389.46	1107.78
389.83	1110.12
390.20	1118.78
390.57	1119.24
390.94	1127.20
391.31	1127.44
391.68	1136.33
392.05	1128.84
392.42	1133.29
392.79	1134.46
393.16	1127.90
393.53	1122.29
393.89	1128.37
394.26	1130.01
394.63	1138.20
395.00	1152.01
395.37	1157.63
395.74	1155.76
396.11	1143.12
396.48	1132.35
396.84	1131.18
397.21	1129.31
397.58	1137.27
397.95	1139.14
398.32	1141.95
398.69	1141.48
399.06	1150.37
399.42	1158.10
399.79	1167.69
400.16	1174.01
400.53	1185.25
400.90	1191.57
401.27	1198.82
401.64	1219.42
402.00	1222.46
402.37	1229.02
402.74	1236.51
403.11	1242.82
403.48	1237.68
403.84	1258.97
404.21	1277.46
404.58	1296.66
404.95	1312.57
405.32	1336.21
405.68	1357.74
406.05	1378.81
406.42	1401.98
406.79	1433.58
407.16	1452.07
407.52	1472.20
407.89	1493.73
408.26	1514.56
408.63	1540.54
408.99	1577.29
409.36	1626.67
409.73	1679.57
410.10	1739.72
410.47	1791.68
410.83	1857.45
411.20	1916.66
411.57	1988.52
411.94	2061.78
412.30	2130.59
412.67	2220.23
413.04	2295.83
413.40	2379.62
413.77	2487.99
414.14	2600.80
414.51	2701.45
414.87	2830.88
415.24	2976.23
415.61	3109.87
415.97	3268.79
416.34	3449.01
416.71	3634.85
417.08	3828.18
417.44	4030.87
417.81	4260.01
418.18	4498.04
418.54	4755.97
418.91	5035.90
419.28	5324.72
419.64	5607.69
420.01	5921.56
420.38	6251.57
420.74	6579.71
421.11	6971.99
421.48	7347.88
421.84	7786.96
422.21	8224.64
422.58	8714.28
422.94	9223.12
423.31	9774.08
423.68	10313.34
424.04	10926.79
424.41	11540.71
424.77	12131.70
425.14	12754.05
425.51	13413.14
425.87	14153.45
426.24	14875.98
426.61	15792.06
426.97	16837.11
427.34	17800.71
427.70	18868.46
428.07	19894.32
428.44	20915.03
428.80	21872.07
429.17	22926.72
429.53	23894.76
429.90	25095.93
430.27	26136.06
430.63	27283.62
431.00	28570.69
431.36	29983.67
431.73	31262.54
432.09	32630.58
432.46	33911.55
432.83	35226.00
433.19	36444.95
433.56	37868.46
433.92	39413.92
434.29	41003.61
434.65	42475.81
435.02	43750.46
435.38	45034.95
435.75	45911.01
436.11	47128.56
436.48	48118.84
436.84	49229.42
437.21	50154.17
437.57	51154.75
437.94	51708.99
438.30	52297.40
438.67	52484.64
439.03	52501.96
439.40	52635.37
439.76	52521.15
440.13	52273.06
440.49	52259.01
440.86	51936.72
441.22	51472.59
441.59	50872.48
441.95	50292.26
442.32	49376.41
442.68	48640.31
443.05	47716.97
443.41	46879.99
443.78	45845.24
444.14	44977.14
444.51	43807.10
444.87	42875.57
445.24	41557.62
445.60	40348.26
445.96	39133.52
446.33	38229.37
446.69	36979.06
447.06	36125.70
447.42	35244.25
447.79	34160.59
448.15	33134.26
448.51	32171.13
448.88	31300.45
449.24	30327.49
449.61	29640.31
449.97	28897.19
450.33	28156.88
450.70	27236.35
451.06	26563.44
451.43	25767.89
451.79	25164.97
452.15	24634.84
452.52	24134.43
452.88	23559.13
453.24	23091.49
453.61	22437.78
453.97	21796.47
454.34	21209.70
454.70	20666.93
455.06	20059.80
455.43	19396.96
455.79	18685.90
456.15	18091.17
456.52	17431.84
456.88	16826.11
457.24	16250.11
457.61	15797.68
457.97	15241.33
458.33	14703.01
458.70	14166.09
459.06	13630.11
459.42	13171.13
459.79	12720.11
460.15	12307.47
460.51	11885.71
460.88	11525.97
461.24	11110.99
461.60	10738.61
461.96	10363.19
462.33	10025.22
462.69	9696.84
463.05	9380.16
463.42	9129.03
463.78	8898.72
464.14	8604.51
464.50	8366.71
464.87	8109.72
465.23	7798.66
465.59	7556.19
465.95	7370.58
466.32	7168.83
466.68	6969.18
467.04	6796.21
467.40	6608.27
467.77	6443.49
468.13	6240.57
468.49	6099.44
468.85	5989.90
469.22	5867.25
469.58	5737.82
469.94	5638.58
470.30	5524.37
470.66	5392.36
471.03	5255.20
471.39	5166.26
471.75	5050.88
472.11	4945.32
472.47	4860.82
472.84	4762.05
473.20	4620.45
473.56	4528.70
473.92	4407.23
474.28	4291.84
474.65	4199.16
475.01	4161.24
475.37	4074.40
475.73	4013.78
476.09	3944.97
476.45	3888.80
476.81	3777.86
477.18	3707.88
477.54	3639.06
477.90	3585.47
478.26	3506.82
478.62	3463.29
478.98	3408.76
479.34	3340.65
479.71	3268.79
480.07	3221.51
480.43	3160.43
480.79	3102.38
481.15	3055.10
481.51	3008.76
481.87	2969.67
482.23	2923.56
482.59	2870.90
482.96	2837.90
483.32	2788.51
483.68	2730.00
484.04	2696.53
484.40	2667.74
484.76	2625.38
485.12	2601.74
485.48	2562.18
485.84	2525.67
486.20	2485.41
486.56	2444.46
486.92	2400.22
487.28	2379.86
487.64	2337.26
488.00	2301.21
488.37	2268.68
488.73	2249.72
489.09	2223.04
489.45	2203.38
489.81	2174.12
490.17	2137.14
490.53	2085.65
490.89	2048.44
491.25	2011.69
491.61	1986.18
491.97	1970.50
492.33	1966.05
492.69	1933.05
493.05	1911.52
493.41	1889.75
493.77	1867.28
494.13	1844.34
494.49	1820.70
494.85	1797.77
495.21	1779.98
495.57	1755.17
495.93	1712.57
496.29	1698.06
496.64	1680.50
497.00	1657.57
497.36	1640.95
497.72	1644.69
498.08	1637.91
498.44	1620.82
498.80	1603.27
499.16	1586.18
499.52	1569.33
499.88	1543.35
500.24	1532.82
500.60	1521.82
500.96	1505.90
501.32	1495.13
501.68	1489.52
502.03	1474.77
502.39	1458.62
502.75	1453.24
503.11	1431.94
503.47	1429.83
503.83	1421.41
504.19	1415.56
504.55	1395.66
504.91	1394.26
505.26	1374.13
505.62	1373.43
505.98	1365.00
506.34	1373.19
506.70	1365.70
507.06	1355.17
507.42	1334.11
507.78	1338.08
508.13	1323.57
508.49	1318.19
508.85	1316.79
509.21	1314.68
509.57	1303.91
509.93	1306.49
510.28	1308.13
510.64	1291.98
511.00	1288.70
511.36	1275.36
511.72	1270.21
512.07	1266.23
512.43	1277.23
512.79	1270.44
513.15	1273.49
513.51	1267.17
513.86	1252.42
514.22	1257.10
514.58	1257.34
514.94	1247.04
515.30	1242.12
515.65	1236.27
516.01	1219.42
516.37	1211.70
516.73	1207.72
517.08	1196.72
517.44	1192.74
517.80	1186.89
518.16	1197.65
518.51	1204.67
518.87	1201.63
519.23	1200.93
519.59	1200.93
519.94	1190.40
520.30	1190.86
520.66	1196.25
521.01	1193.91
521.37	1197.42
521.73	1189.93
522.09	1183.84
522.44	1183.37
522.80	1189.23
523.16	1183.37
523.51	1184.55
523.87	1189.93
524.23	1182.91
524.58	1169.10
524.94	1170.97
525.30	1167.93
525.65	1152.71
526.01	1150.37
526.37	1159.50
526.72	1150.14
527.08	1150.37
527.44	1146.63
527.79	1147.10
528.15	1142.88
528.51	1147.33
528.86	1155.99
529.22	1171.20
529.58	1169.57
529.93	1159.97
530.29	1153.65
530.65	1144.52
531.00	1129.54
531.36	1130.95
531.71	1141.01
532.07	1137.97
532.43	1144.52
532.78	1138.20
533.14	1141.95
533.49	1132.12
533.85	1140.07
534.21	1128.84
534.56	1139.61
534.92	1136.33
535.27	1143.59
535.63	1137.03
535.98	1142.18
536.34	1138.67
536.69	1126.97
537.05	1125.10
537.41	1121.12
537.76	1116.67
538.12	1119.01
538.47	1132.59
538.83	1131.41
539.18	1142.42
539.54	1140.54
539.89	1138.44
540.25	1135.86
540.60	1134.69
540.96	1123.93
541.31	1128.84
541.67	1134.46
542.02	1131.88
542.38	1135.16
542.73	1147.80
543.09	1144.99
543.44	1137.03
543.80	1135.39
544.15	1132.12
544.51	1128.61
544.86	1124.39
545.22	1133.05
545.57	1130.71
545.93	1127.90
546.28	1116.20
546.64	1121.12
546.99	1113.86
547.35	1121.12
547.70	1123.22
548.05	1130.95
548.41	1140.54
548.76	1144.52
549.12	1144.99
549.47	1139.61
549.83	1148.50
550.18	1142.88
550.53	1136.56
550.89	1128.14
551.24	1133.99
551.60	1130.24
551.95	1125.10
552.30	1123.46
552.66	1117.37
553.01	1112.69
553.37	1102.39
553.72	1112.22
554.07	1117.37
554.43	1132.12
554.78	1138.44
555.13	1134.22
555.49	1132.12
555.84	1122.75
556.19	1116.67
556.55	1112.22
556.90	1126.50
557.26	1118.07
557.61	1133.05
557.96	1129.54
558.32	1131.41
558.67	1125.10
559.02	1124.16
559.37	1113.63
559.73	1125.80
560.08	1123.69
560.43	1119.01
560.79	1122.75
561.14	1120.41
561.49	1106.37
561.85	1110.82
562.20	1116.67
562.55	1106.84
562.90	1118.07
563.26	1120.18
563.61	1109.41
563.96	1111.05
564.32	1111.05
564.67	1100.29
565.02	1093.26
565.37	1095.84
565.73	1087.18
566.08	1100.99
566.43	1109.88
566.78	1110.12
567.14	1112.46
567.49	1114.56
567.84	1105.67
568.19	1103.80
568.54	1111.99
568.90	1115.03
569.25	1120.65
569.60	1121.82
569.95	1123.46
570.31	1125.33
570.66	1116.20
571.01	1115.03
571.36	1127.90
571.71	1119.71
572.06	1112.22
572.42	1124.16
572.77	1126.50
573.12	1125.10
573.47	1125.33
573.82	1121.12
574.18	1113.39
574.53	1111.75
574.88	1107.54
575.23	1116.44
575.58	1124.16
575.93	1123.46
576.28	1120.65
576.64	1117.84
576.99	1103.80
577.34	1100.29
577.69	1101.92
578.04	1098.18
578.39	1099.82
578.74	1104.97
579.09	1110.12
579.44	1105.90
579.80	1109.65
580.15	1097.24
580.50	1093.97
580.85	1098.18
581.20	1104.50
581.55	1104.73
581.90	1111.05
582.25	1115.73
582.60	1104.73
582.95	1100.75
583.30	1092.80
583.65	1085.54
584.00	1083.67
584.35	1092.09
584.71	1092.56
585.06	1093.50
585.41	1100.99
585.76	1097.95
586.11	1101.46
586.46	1100.75
586.81	1101.22
587.16	1104.26
587.51	1100.29
587.86	1091.63
588.21	1092.09
588.56	1101.22
588.91	1097.24
589.26	1091.63
589.61	1094.43
589.96	1093.73
590.31	1087.18
590.66	1086.01
591.01	1098.18
591.36	1090.46
591.71	1085.54
592.06	1079.22
592.41	1079.92
592.76	1083.90
593.10	1091.16
593.45	1092.09
593.80	1099.12
594.15	1097.71
594.50	1099.12
594.85	1096.78
595.20	1105.44
595.55	1115.97
595.90	1121.12
596.25	1114.10
596.60	1115.03
596.95	1109.88
597.30	1096.31
597.64	1150.37
597.99	1156.46
598.34	1166.29
598.69	1159.97
599.04	1156.93
599.39	1102.63
599.74	1107.78
600.09	1099.35
600.44	1104.50
600.78	1118.54
601.13	1116.44
601.48	1104.50
601.83	1106.61
602.18	1116.67
602.53	1103.09
602.88	1093.97
603.22	1090.22
603.57	1085.07
603.92	1077.35
604.27	1080.16
604.62	1085.77
604.97	1093.26
605.31	1090.92
605.66	1088.82
606.01	1088.58
606.36	1088.58
606.71	1097.95
607.05	1115.97
607.40	1118.54
607.75	1126.27
608.10	1119.71
608.44	1101.46
608.79	1085.31
609.14	1084.84
609.49	1075.71
609.84	1080.39
610.18	1086.71
610.53	1093.03
610.88	1095.60
611.23	1095.14
611.57	1103.09
611.92	1106.14
612.27	1102.39
612.62	1101.46
612.96	1108.48
613.31	1103.80
613.66	1108.48
614.00	1107.31
614.35	1117.84
614.70	1125.56
615.05	1128.84
615.39	1122.52
615.74	1129.31
616.09	1110.82
616.43	1093.26
616.78	1090.22
617.13	1090.46
617.47	1086.71
617.82	1090.92
618.17	1092.09
618.51	1096.78
618.86	1098.65
619.21	1099.35
619.55	1104.97
619.90	1115.97
620.25	1106.61
620.59	1106.14
620.94	1106.37
621.29	1102.86
621.63	1098.88
621.98	1106.37
622.32	1103.80
622.67	1103.33
623.02	1105.20
623.36	1110.82
623.71	1100.99
624.05	1099.82
624.40	1096.78
624.75	1083.67
625.09	1082.26
625.44	1091.86
625.78	1089.29
626.13	1077.58
626.48	1087.41
626.82	1084.84
627.17	1079.69
627.51	1079.69
627.86	1092.80
628.20	1095.14
628.55	1094.67
628.89	1093.73
629.24	1102.39
629.58	1107.31
629.93	1102.16
630.28	1095.60
630.62	1091.16
630.97	1090.69
631.31	1084.84
631.66	1093.50
632.00	1109.18
632.35	1115.50
632.69	1105.20
633.04	1102.86
633.38	1100.99
633.73	1074.77
634.07	1078.99
634.42	1091.39
634.76	1092.33
635.11	1097.95
635.45	1121.12
635.79	1112.92
636.14	1102.86
636.48	1105.90
636.83	1099.82
637.17	1095.60
637.52	1097.01
637.86	1100.75
638.21	1098.18
638.55	1099.35
638.89	1094.67
639.24	1097.48
639.58	1095.14
639.93	1096.31
640.27	1098.41
640.61	1097.24
640.96	1099.58
641.30	1105.44
641.65	1098.18
641.99	1090.92
642.33	1086.01
642.68	1087.65
643.02	1085.31
643.37	1085.07
643.71	1078.52
644.05	1084.60
644.40	1074.54
644.74	1067.52
645.08	1068.92
645.43	1072.20
645.77	1065.88
646.11	1071.03
646.46	1075.71
646.80	1079.22
647.14	1082.97
647.49	1096.78
647.83	1096.31
648.17	1092.09
648.52	1093.73
648.86	1099.12
649.20	1086.01
649.55	1082.03
649.89	1084.37
650.23	1076.88
650.57	1072.43
650.92	1075.71
651.26	1068.92
651.60	1071.03
651.95	1080.16
652.29	1074.31
652.63	1072.90
652.97	1086.24
653.32	1093.73
653.66	1087.18
654.00	1093.03
654.34	1097.24
654.69	1092.56
655.03	1083.67
655.37	1087.41
655.71	1090.22
656.05	1089.99
656.40	1094.43
656.74	1094.90
657.08	1097.95
657.42	1097.24
657.76	1092.33
658.11	1084.84
658.45	1091.86
658.79	1086.94
659.13	1087.41
659.47	1093.97
659.82	1097.95
660.16	1089.75
660.50	1091.63
660.84	1091.63
661.18	1089.52
661.52	1093.26
661.87	1095.37
662.21	1096.31
662.55	1098.41
662.89	1105.67
663.23	1098.65
663.57	1096.54
663.91	1092.33
664.25	1093.26
664.60	1086.24
664.94	1097.48
665.28	1095.37
665.62	1090.92
665.96	1092.56
666.30	1090.69
666.64	1090.92
666.98	1098.41
667.32	1111.52
667.66	1102.39
668.01	1106.37
668.35	1100.05
668.69	1100.29
669.03	1093.50
669.37	1084.60
669.71	1076.88
670.05	1076.65
670.39	1070.09
670.73	1067.75
671.07	1076.18
671.41	1085.07
671.75	1072.20
672.09	1070.09
672.43	1076.41
672.77	1084.84
673.11	1078.75
673.45	1096.07
673.79	1100.29
674.13	1101.69
674.47	1093.26
674.81	1092.09
675.15	1102.63
675.49	1110.58
675.83	1113.39
676.17	1114.56
676.51	1120.65
676.85	1106.14
677.19	1094.20
677.53	1089.99
677.87	1099.35
678.21	1101.92
678.55	1106.14
678.89	1113.39
679.23	1119.95
679.57	1107.31
679.90	1094.43
680.24	1090.92
680.58	1075.71
680.92	1067.05
681.26	1072.20
681.60	1077.35
681.94	1078.99
682.28	1093.26
682.62	1098.18
682.96	1102.39
683.29	1114.56
683.63	1114.56
683.97	1104.73
684.31	1097.24
684.65	1088.58
684.99	1085.54
685.33	1074.54
685.67	1076.88
686.00	1070.09
686.34	1070.56
686.68	1070.33
687.02	1079.69
687.36	1081.33
687.70	1085.77
688.03	1086.48
688.37	1078.75
688.71	1076.18
689.05	1072.90
689.39	1075.94
689.72	1076.88
690.06	1078.05
690.40	1076.41
690.74	1077.35
691.08	1075.94
691.41	1073.60
691.75	1071.50
692.09	1075.24
692.43	1086.94
692.76	1094.90
693.10	1103.33
693.44	1112.46
693.78	1119.24
694.11	1113.63
694.45	1114.56
694.79	1114.56
695.13	1097.48
695.46	1079.46
695.80	1081.56
696.14	1083.20
696.48	1080.16
696.81	1089.75
697.15	1100.29
697.49	1092.09
697.82	1084.37
698.16	1087.18
698.50	1083.90
698.83	1086.01
699.17	1089.99
699.51	1091.16
699.84	1076.88
700.18	1077.58
700.52	1070.56
700.85	1063.77
701.19	1050.67
701.53	1053.94
701.86	1054.41
702.20	1060.26
702.54	1071.03
702.87	1087.41
703.21	1083.90
703.55	1086.01
703.88	1090.69
704.22	1083.67
704.55	1073.14
704.89	1082.03
705.23	1083.43
705.56	1078.75
705.90	1085.77
706.23	1091.63
706.57	1101.69
706.91	1100.29
707.24	1110.82
707.58	1116.67
707.91	1113.16
708.25	1104.50
708.58	1109.18
708.92	1098.18
709.26	1078.52
709.59	1076.18
709.93	1078.99
710.26	1076.41
710.60	1067.28
710.93	1084.60
711.27	1085.54
711.60	1090.46
711.94	1085.54
712.27	1089.99
712.61	1084.60
712.94	1087.65
713.28	1073.14
713.61	1081.80
713.95	1086.24
714.28	1084.60
714.62	1078.28
714.95	1080.39
715.29	1074.77
715.62	1071.26
715.96	1067.28
716.29	1073.14
716.63	1076.65
716.96	1077.11
717.29	1071.97
717.63	1071.03
717.96	1071.97
718.30	1073.60
718.63	1071.73
718.97	1086.94
719.30	1100.05
719.63	1095.84
719.97	1100.29
720.30	1100.75
720.64	1099.12
720.97	1093.26
721.30	1098.88
721.64	1091.16
721.97	1098.88
722.31	1090.46
722.64	1096.07
722.97	1102.86
723.31	1105.20
723.64	1106.14
723.97	1102.86
724.31	1093.73
724.64	1086.71
724.98	1093.50
725.31	1087.65
725.64	1090.69
725.98	1096.07
726.31	1094.90
726.64	1082.97
726.97	1085.54
727.31	1088.82
727.64	1085.07
727.97	1098.41
728.31	1107.78
728.64	1100.29
728.97	1105.44
729.31	1110.35
729.64	1097.95
729.97	1093.26
730.30	1100.29
730.64	1095.14
730.97	1093.26
731.30	1090.46
731.63	1093.73
731.97	1077.82
732.30	1077.82
732.63	1075.71
732.96	1072.43
733.30	1071.97
733.63	1084.14
733.96	1082.73
734.29	1079.22
734.63	1084.37
734.96	1086.71
735.29	1083.90
735.62	1087.41
735.95	1092.56
736.29	1101.69
736.62	1097.71
736.95	1101.46
737.28	1096.31
737.61	1094.20
737.94	1077.11
738.28	1069.16
738.61	1064.71
738.94	1068.22
739.27	1072.20
739.60	1079.92
739.93	1082.26
740.27	1080.63
740.60	1080.63
740.93	1076.18
741.26	1069.62
741.59	1066.11
741.92	1078.99
742.25	1084.60
742.58	1077.11
742.91	1082.50
743.25	1093.97
743.58	1092.09
743.91	1083.90
744.24	1094.43
744.57	1108.24
744.90	1098.88
745.23	1086.94
745.56	1086.48
745.89	1076.41
746.22	1070.56
746.55	1082.26
746.88	1082.97
747.21	1078.75
747.54	1082.50
747.87	1073.14
748.20	1072.20
748.53	1079.46
748.87	1086.94
749.20	1093.03
749.53	1087.18
749.86	1087.88
750.19	1088.82
750.52	1081.09
750.85	1070.56
751.18	1079.69
751.51	1077.35
751.84	1067.99
752.16	1069.62
752.49	1067.28
752.82	1065.65
753.15	1068.22
753.48	1081.33
753.81	1078.99
754.14	1090.69
754.47	1083.67
754.80	1082.97
755.13	1076.88
755.46	1081.56
755.79	1074.07
756.12	1079.46
756.45	1070.80
756.78	1068.22
757.11	1070.33
757.43	1069.62
757.76	1076.18
758.09	1079.69
758.42	1072.20
758.75	1072.67
759.08	1077.11
759.41	1073.14
759.74	1080.63
760.07	1094.90
760.39	1094.43
760.72	1091.86
761.05	1095.60
761.38	1085.77
761.71	1079.69
762.04	1085.31
762.36	1089.75
762.69	1091.16
763.02	1090.22
763.35	1090.69
763.68	1077.35
764.01	1074.77
764.33	1070.56
764.66	1075.24
764.99	1069.86
765.32	1078.28
765.65	1074.07
765.97	1084.60
766.30	1081.80
766.63	1090.69
766.96	1079.22
767.28	1079.69
767.61	1064.71
767.94	1066.35
768.27	1068.22
768.59	1078.28
768.92	1088.12
769.25	1080.16
769.58	1069.86
769.90	1067.05
770.23	1071.97
770.56	1082.50
770.89	1089.29
771.21	1099.12
771.54	1098.41
771.87	1090.46
772.19	1080.63
772.52	1083.20
772.85	1076.18
773.17	1066.58
773.50	1062.60
773.83	1058.39
774.15	1063.77
774.48	1082.26
774.81	1082.73
775.13	1094.90
775.46	1103.09
775.79	1099.58
776.11	1092.09
776.44	1090.46
776.77	1084.14
777.09	1070.09
777.42	1075.24
777.74	1068.92
778.07	1069.39
778.40	1067.05
778.72	1070.33
779.05	1070.09
779.37	1064.48
779.70	1075.94
780.03	1076.18
780.35	1082.26
780.68	1077.82
781.00	1089.05
781.33	1082.03
781.65	1082.73
781.98	1078.05
782.31	1072.67
782.63	1064.48
782.96	1062.84
783.28	1063.31
783.61	1059.56
783.93	1057.92
784.26	1061.67
784.58	1069.62
784.91	1078.75
785.23	1091.39
785.56	1094.20
785.88	1094.43
786.21	1093.97
786.53	1082.26
786.86	1068.45
787.18	1071.50
787.51	1073.14
787.83	1073.14
788.16	1070.56
788.48	1074.77
788.81	1069.39
789.13	1063.77
789.46	1064.71
789.78	1063.54
790.10	1055.82
790.43	1057.92
790.75	1057.92
791.08	1060.26
791.40	1071.26
791.73	1079.46
792.05	1086.71
792.37	1094.43
792.70	1094.67
793.02	1095.14
793.35	1097.01
793.67	1095.60
793.99	1095.84
794.32	1085.77
794.64	1082.50
794.96	1079.92
795.29	1077.82
795.61	1074.77
795.93	1075.24
796.26	1086.24
796.58	1089.29
796.91	1088.35
797.23	1078.99
797.55	1081.09
797.87	1063.77
798.20	1056.28
798.52	1063.31
798.84	1077.35
799.17	1083.20
799.49	1098.18
799.81	1104.73
800.14	1097.48
800.46	1092.33
800.78	1090.46
801.10	1076.41
801.43	1068.69
801.75	1068.92
802.07	1062.60
802.40	1056.99
802.72	1057.22
803.04	1064.24
803.36	1070.56
803.69	1076.88
804.01	1078.52
804.33	1091.63
804.65	1091.39
804.97	1094.90
805.30	1093.03
805.62	1086.71
805.94	1076.41
806.26	1066.58
806.58	1063.07
806.91	1059.33
807.23	1057.69
807.55	1053.94
807.87	1067.99
808.19	1063.77
808.52	1077.35
808.84	1085.54
809.16	1087.65
809.48	1077.11
809.80	1074.31
810.12	1079.22
810.44	1080.16
810.77	1084.60
811.09	1086.48
811.41	1094.90
811.73	1093.97
812.05	1094.20
812.37	1089.52
812.69	1100.29
813.01	1097.01
813.33	1080.39
813.66	1081.80
813.98	1084.14
814.30	1074.31
814.62	1076.88
814.94	1084.84
815.26	1086.94
815.58	1096.78
815.90	1099.35
816.22	1085.07
816.54	1079.46
816.86	1077.11
817.18	1069.62
817.50	1076.88
817.82	1082.73
818.14	1075.48
818.46	1076.65
818.78	1069.62
819.10	1061.43
819.42	1064.48
819.74	1067.52
820.06	1065.88
820.38	1070.09
820.70	1064.24
821.02	1056.52
821.34	1063.31
821.66	1066.11
821.98	1063.31
822.30	1075.71
822.62	1083.20
822.94	1082.03
823.26	1085.54
823.58	1092.80
823.90	1082.26
824.22	1084.60
824.54	1087.41
824.86	1078.99
825.18	1083.67
825.50	1100.29
825.81	1098.88
826.13	1100.05
826.45	1105.67
826.77	1099.35
827.09	1089.75
827.41	1089.99
827.73	1086.71
828.05	1070.56
828.36	1064.48
828.68	1054.65
829.00	1049.03
829.32	1046.69
829.64	1053.24
829.96	1064.24
830.28	1077.35
830.59	1086.71
830.91	1086.01
831.23	1090.22
831.55	1081.09
831.87	1070.33
832.19	1066.11
832.50	1064.48
832.82	1065.65
833.14	1071.03
833.46	1071.73
833.78	1072.20
834.09	1074.07
834.41	1073.84
834.73	1074.77
835.05	1082.26
835.36	1078.75
835.68	1082.50
836.00	1074.77
836.32	1082.26
836.63	1089.29
836.95	1091.63
837.27	1087.41
837.59	1103.09
837.90	1095.60
838.22	1086.48
838.54	1087.65
838.85	1093.03
839.17	1088.35
839.49	1100.05
839.80	1105.67
840.12	1105.20
840.44	1107.31
840.76	1107.54
841.07	1089.05
841.39	1081.09
841.71	1078.05
842.02	1072.67
842.34	1074.31
842.65	1077.11
842.97	1070.80
843.29	1073.14
843.60	1078.28
843.92	1074.31
844.24	1082.50
844.55	1095.84
844.87	1089.29
845.18	1091.39
845.50	1089.52
845.82	1083.90
846.13	1078.52
846.45	1092.80
846.76	1091.16
847.08	1088.12
847.40	1089.05
847.71	1089.29
848.03	1087.18
848.34	1071.03
848.66	1068.92
848.97	1068.22
849.29	1068.45
849.60	1063.07
849.92	1063.54
850.24	1068.45
850.55	1067.75
850.87	1067.28
851.18	1060.73
851.50	1065.65
851.81	1064.71
852.13	1067.99
852.44	1068.92
852.76	1082.26
853.07	1088.35
853.39	1090.69
853.70	1087.88
854.01	1082.26
854.33	1070.56
854.64	1072.43
854.96	1074.77
855.27	1074.31
855.59	1082.97
855.90	1094.90
856.22	1091.86
856.53	1090.22
856.84	1095.84
857.16	1102.86
857.47	1086.94
857.79	1097.01
858.10	1086.71
858.41	1083.67
858.73	1080.39
859.04	1086.01
859.36	1074.31
859.67	1080.86
859.98	1079.22
860.30	1066.11
860.61	1067.52
860.92	1073.60
861.24	1075.01
861.55	1071.97
861.87	1079.69
862.18	1085.31
862.49	1079.92
862.81	1085.54
863.12	1086.24
863.43	1091.86
863.74	1088.58
864.06	1089.75
864.37	1090.69
864.68	1082.97
865.00	1076.65
865.31	1067.99
865.62	1066.11
865.94	1057.92
866.25	1057.69
866.56	1057.69
866.87	1063.31
867.19	1069.39
867.50	1069.39
867.81	1082.50
868.12	1076.65
868.44	1075.24
868.75	1072.20
869.06	1072.43
869.37	1065.65
869.68	1067.52
870.00	1062.84
870.31	1063.77
870.62	1079.69
870.93	1087.88
871.24	1095.84
871.56	1106.61
871.87	1109.18
872.18	1083.67
872.49	1075.24
872.80	1068.22
873.12	1060.96
873.43	1058.62
873.74	1070.33
874.05	1071.73
874.36	1081.56
874.67	1087.88
874.98	1084.84
875.29	1086.48
875.61	1086.94
875.92	1075.01
876.23	1067.28
876.54	1067.05
876.85	1063.07
877.16	1064.24
877.47	1065.18
877.78	1075.24
878.09	1070.80
878.40	1073.14
878.72	1074.77
879.03	1080.63
879.34	1075.71
879.65	1082.03
879.96	1082.97
880.27	1091.86
880.58	1087.41
880.89	1084.14
881.20	1094.67
881.51	1096.54
881.82	1079.46
882.13	1080.39
882.44	1080.86
882.75	1069.86
883.06	1069.86
883.37	1074.54
883.68	1074.54
883.99	1080.16
884.30	1075.71
884.61	1080.39
884.92	1087.41
885.23	1094.67
885.54	1101.69
885.85	1108.71
886.16	1103.56
886.47	1089.52
886.78	1078.99
887.08	1064.01
887.39	1060.50
887.70	1053.71
888.01	1069.39
888.32	1068.92
888.63	1078.28
888.94	1079.46
889.25	1082.26
889.56	1077.82
889.87	1082.97
890.17	1078.28
890.48	1075.24
890.79	1085.77
891.10	1092.56
891.41	1084.37
891.72	1082.97
892.03	1088.35
892.34	1077.58
892.64	1075.71
892.95	1093.03
893.26	1096.07
893.57	1095.84
893.88	1096.07
894.18	1084.37
894.49	1066.82
894.80	1066.58
895.11	1064.48
895.42	1068.92
895.72	1079.69
896.03	1097.24
896.34	1095.37
896.65	1101.69
896.96	1103.80
897.26	1098.18
897.57	1096.31
897.88	1093.03
898.19	1083.43
898.49	1081.09
898.80	1084.37
899.11	1081.09
899.41	1086.24
899.72	1095.84
900.03	1106.84
900.34	1095.37
900.64	1093.03
900.95	1093.03
901.26	1083.90
901.56	1068.69
901.87	1075.01
902.18	1082.26
902.48	1081.80
902.79	1083.43
903.10	1082.73
903.40	1083.20
903.71	1070.33
904.02	1080.63
904.32	1085.77
904.63	1081.80
904.94	1073.84
905.24	1076.88
905.55	1062.37
905.85	1060.03
906.16	1064.48
906.47	1064.24
906.77	1065.41
907.08	1071.97
907.38	1078.05
907.69	1083.20
908.00	1094.90
908.30	1095.37
908.61	1093.03
908.91	1084.14
909.22	1076.18
909.52	1075.24
909.83	1079.46
910.14	1081.56
910.44	1086.71
910.75	1091.86
911.05	1091.39
911.36	1086.48
911.66	1089.05
911.97	1077.11
912.27	1081.09
912.58	1080.39
912.88	1087.18
913.19	1082.73
913.49	1081.09
913.80	1070.80
914.10	1073.14
914.41	1067.52
914.71	1065.65
915.01	1075.24
915.32	1082.26
915.62	1082.97
915.93	1083.43
916.23	1080.63
916.54	1072.67
916.84	1069.39
917.15	1059.56
917.45	1054.88
917.75	1058.62
918.06	1066.35
918.36	1075.01
918.67	1086.71
918.97	1096.54
919.27	1099.82
919.58	1103.56
919.88	1091.86
920.18	1084.60
920.49	1083.90
920.79	1084.37
921.10	1078.52
921.40	1088.35
921.70	1084.84
922.01	1079.69
922.31	1079.22
922.61	1078.99
922.92	1071.73
923.22	1075.01
923.52	1079.92
923.82	1076.65
924.13	1082.26
924.43	1091.86
924.73	1094.90
925.04	1082.03
925.34	1088.58
925.64	1091.39
925.94	1084.60
926.25	1092.09
926.55	1103.80
926.85	1099.82
927.15	1090.92
927.46	1086.24
927.76	1072.67
928.06	1065.41
928.36	1054.18
928.67	1053.94
928.97	1066.35
929.27	1071.73
929.57	1071.03
929.87	1087.65
930.18	1089.52
930.48	1074.07
930.78	1072.20
931.08	1076.41
931.38	1073.84
931.69	1078.52
931.99	1088.82
932.29	1092.56
932.59	1088.58
932.89	1079.69
933.19	1084.84
933.49	1076.88
933.80	1077.35
934.10	1073.84
934.40	1073.37
934.70	1068.69
935.00	1074.77
935.30	1071.97
935.60	1078.52
935.90	1086.24
936.20	1085.31
936.50	1095.84
936.81	1095.84
937.11	1101.69
937.41	1093.50
937.71	1094.90
938.01	1079.92
938.31	1087.41
938.61	1077.82
938.91	1075.24
939.21	1069.39
939.51	1072.67
939.81	1068.69
940.11	1065.65
940.41	1077.11
940.71	1082.50
941.01	1078.75
941.31	1075.24
941.61	1092.33
941.91	1087.65
942.21	1089.99
942.51	1088.12
942.81	1092.56
943.11	1075.71
943.41	1072.67
943.71	1063.77
944.01	1067.05
944.31	1065.65
944.61	1074.07
944.90	1075.48
945.20	1083.43
945.50	1081.56
945.80	1082.97
946.10	1090.46
946.40	1095.84
946.70	1091.63
947.00	1097.71
947.30	1090.46
947.60	1075.48
947.89	1071.26
948.19	1062.84
948.49	1058.86
948.79	1060.26
949.09	1070.33
949.39	1076.41
949.69	1086.48
949.98	1089.52
950.28	1091.16
950.58	1093.03
950.88	1090.22
951.18	1084.37
951.48	1077.11
951.77	1075.01
952.07	1072.20
952.37	1072.67
952.67	1065.18
952.97	1059.79
953.26	1067.75
953.56	1060.03
953.86	1053.01
954.16	1069.62
954.45	1091.39
954.75	1079.69
955.05	1082.50
955.35	1093.50
955.64	1083.20
955.94	1074.07
956.24	1073.37
956.54	1070.33
956.83	1059.09
957.13	1059.09
957.43	1056.05
957.72	1055.82
958.02	1055.11
958.32	1060.26
958.61	1063.31
958.91	1066.35
959.21	1077.11
959.50	1086.01
959.80	1084.37
960.10	1075.94
960.39	1073.14
960.69	1056.99
960.99	1054.88
961.28	1056.99
961.58	1064.94
961.87	1062.84
962.17	1071.97
962.47	1067.75
962.76	1060.26
963.06	1064.71
963.36	1067.75
963.65	1075.94
963.95	1075.24
964.24	1092.56
964.54	1090.69
964.83	1099.58
965.13	1085.77
965.42	1081.80
965.72	1069.62
966.02	1067.05
966.31	1062.14
966.61	1076.18
966.90	1086.48
967.20	1090.46
967.49	1084.84
967.79	1077.82
968.08	1071.03
968.38	1070.80
968.67	1067.05
968.97	1074.07
969.26	1083.20
969.56	1080.16
969.85	1073.14
970.15	1077.58
970.44	1078.99
970.74	1074.31
971.03	1077.35
971.32	1086.24
971.62	1081.09
971.91	1071.73
972.21	1071.26
972.50	1067.28
972.80	1069.62
973.09	1075.94
973.38	1089.05
973.68	1093.26
973.97	1108.01
974.27	1103.09
974.56	1103.56
974.85	1097.24
975.15	1085.07
975.44	1077.82
975.73	1086.01
976.03	1077.11
976.32	1080.86
976.61	1100.05
976.91	1088.12
977.20	1072.20
977.49	1075.01
977.79	1064.71
978.08	1053.48
978.37	1067.28
978.67	1070.80
978.96	1082.50
979.25	1099.12
979.55	1098.18
979.84	1096.78
980.13	1105.67
980.42	1097.48
980.72	1097.95
981.01	1101.22
981.30	1097.01
981.59	1083.43
981.89	1083.90
982.18	1069.16
982.47	1063.07
982.76	1062.84
983.06	1074.07
983.35	1086.01
983.64	1089.29
983.93	1092.80
984.22	1087.65
984.52	1086.48
984.81	1073.37
985.10	1071.97
985.39	1064.71
985.68	1070.33
985.97	1073.14
986.27	1073.60
986.56	1078.52
986.85	1083.20
987.14	1083.20
987.43	1077.35
987.72	1082.03
988.01	1091.86
988.31	1097.71
988.60	1095.84
988.89	1097.48
989.18	1087.65
989.47	1084.14
989.76	1080.86
990.05	1086.71
990.34	1079.92
990.63	1082.50
990.92	1076.65
991.21	1072.20
991.51	1075.94
991.80	1086.24
992.09	1089.29
992.38	1081.56
992.67	1086.94
992.96	1084.60
993.25	1071.73
993.54	1069.62
993.83	1079.46
994.12	1081.09
994.41	1074.31
994.70	1079.92
994.99	1080.63
995.28	1076.18
995.57	1074.07
995.86	1073.84
996.15	1074.07
996.44	1085.07
996.73	1082.50
997.02	1085.31
997.31	1087.65
997.59	1086.94
997.88	1078.75
998.17	1086.48
998.46	1080.86
998.75	1078.52
999.04	1084.60
999.33	1078.52
999.62	1074.07
999.91	1088.12
1000.20	1095.14
1000.49	1090.92
1000.77	1095.84
1001.06	1091.16
1001.35	1074.54
1001.64	1072.43
1001.93	1069.39
1002.22	1063.54
1002.51	1070.80
1002.79	1074.31
1003.08	1079.92
1003.37	1086.71
1003.66	1095.14
1003.95	1095.14
1004.23	1096.78
1004.52	1094.43
1004.81	1088.35
1005.10	1084.37
1005.39	1075.48
1005.67	1074.07
1005.96	1059.33
1006.25	1067.28
1006.54	1066.82
1006.83	1077.82
1007.11	1077.11
1007.40	1085.31
1007.69	1077.58
1007.97	1072.67
1008.26	1081.09
1008.55	1086.94
1008.84	1087.41
1009.12	1097.01
1009.41	1100.75
1009.70	1078.99
1009.98	1086.48
1010.27	1088.82
1010.56	1082.26
1010.85	1080.39
1011.13	1088.35
1011.42	1075.94
1011.71	1079.22
1011.99	1075.94
1012.28	1073.60
1012.56	1067.52
1012.85	1068.69
1013.14	1069.62
1013.42	1073.14
1013.71	1076.41
1014.00	1084.14
1014.28	1080.86
1014.57	1075.24
1014.85	1075.01
1015.14	1077.58
1015.43	1077.35
1015.71	1080.63
1016.00	1083.20
1016.28	1084.37
1016.57	1085.54
1016.85	1090.69
1017.14	1097.01
1017.43	1091.63
1017.71	1086.01
1018.00	1091.86
1018.28	1086.48
1018.57	1072.67
1018.85	1065.88
1019.14	1068.45
1019.42	1058.86
1019.71	1057.45
1019.99	1062.60
1020.28	1071.97
1020.56	1067.75
1020.85	1067.28
1021.13	1064.71
1021.42	1061.90
1021.70	1048.33
1021.99	1050.43
1022.27	1051.13
1022.55	1062.60
1022.84	1069.62
>>>>>End Processed Spectral Data<<<<<
