SpectraSuite Data File
++++++++++++++++++++++++++++++++++++
Date: Mon Aug 26 10:24:42 PDT 2019
User: corrico
Dark Spectrum Present: No
Reference Spectrum Present: No
Number of Sampled Component Spectra: 1
Spectrometers: USB2+H06089
Integration Time (usec): 10000 (USB2+H06089)
Spectra Averaged: 2 (USB2+H06089)
Boxcar Smoothing: 2 (USB2+H06089)
Correct for Electrical Dark: No (USB2+H06089)
Strobe/Lamp Enabled: No (USB2+H06089)
Correct for Detector Non-linearity: No (USB2+H06089)
Correct for Stray Light: No (USB2+H06089)
Number of Pixels in Processed Spectrum: 2048
>>>>>Begin Processed Spectral Data<<<<<
339.70	1042.71
340.07	1042.71
340.45	1005.26
340.82	981.62
341.19	956.34
341.57	925.21
341.94	912.34
342.31	906.49
342.69	897.13
343.06	890.34
343.43	895.72
343.81	891.98
344.18	892.91
344.55	903.45
344.93	917.96
345.30	921.47
345.67	935.28
346.04	940.43
346.42	944.64
346.79	942.30
347.16	948.15
347.54	943.94
347.91	951.43
348.28	965.94
348.65	988.17
349.03	1009.47
349.40	1026.56
349.77	1051.84
350.14	1052.77
350.52	1053.71
350.89	1048.33
351.26	1061.90
351.63	1057.22
352.01	1074.77
352.38	1075.24
352.75	1086.94
353.12	1092.33
353.50	1098.41
353.87	1087.18
354.24	1097.24
354.61	1107.31
354.98	1090.92
355.36	1093.26
355.73	1103.33
356.10	1106.61
356.47	1100.75
356.84	1117.84
357.22	1110.35
357.59	1111.05
357.96	1106.84
358.33	1107.31
358.70	1095.14
359.08	1104.50
359.45	1099.82
359.82	1111.29
360.19	1109.65
360.56	1127.90
360.94	1125.33
361.31	1127.67
361.68	1122.05
362.05	1118.31
362.42	1111.75
362.79	1106.84
363.16	1111.75
363.54	1097.48
363.91	1104.73
364.28	1101.22
364.65	1094.20
365.02	1084.60
365.39	1083.90
365.76	1072.43
366.14	1071.50
366.51	1078.05
366.88	1078.75
367.25	1086.71
367.62	1092.56
367.99	1083.20
368.36	1087.65
368.73	1096.31
369.10	1099.58
369.48	1099.58
369.85	1115.03
370.22	1120.88
370.59	1118.07
370.96	1110.12
371.33	1106.14
371.70	1102.63
372.07	1101.22
372.44	1100.52
372.81	1103.80
373.18	1106.61
373.55	1105.67
373.93	1098.65
374.30	1099.82
374.67	1092.09
375.04	1093.50
375.41	1093.73
375.78	1089.99
376.15	1082.50
376.52	1082.03
376.89	1079.92
377.26	1070.80
377.63	1065.88
378.00	1063.77
378.37	1064.71
378.74	1073.37
379.11	1080.63
379.48	1093.26
379.85	1097.01
380.22	1105.44
380.59	1099.35
380.96	1091.39
381.33	1095.84
381.70	1107.07
382.07	1100.05
382.44	1102.86
382.81	1122.29
383.18	1123.69
383.55	1117.61
383.92	1128.61
384.29	1127.20
384.66	1118.31
385.03	1112.69
385.40	1117.61
385.77	1117.14
386.14	1115.73
386.51	1110.35
386.88	1103.80
387.25	1097.01
387.62	1103.80
387.99	1105.44
388.36	1109.41
388.73	1113.16
389.10	1122.05
389.46	1123.69
389.83	1131.88
390.20	1130.95
390.57	1142.88
390.94	1147.56
391.31	1148.03
391.68	1144.52
392.05	1154.12
392.42	1154.59
392.79	1141.95
393.16	1129.07
393.53	1132.12
393.89	1129.07
394.26	1128.37
394.63	1136.10
395.00	1138.90
395.37	1141.25
395.74	1146.86
396.11	1150.37
396.48	1150.84
396.84	1159.50
397.21	1157.39
397.58	1155.52
397.95	1142.88
398.32	1144.05
398.69	1144.99
399.06	1146.86
399.42	1148.03
399.79	1166.29
400.16	1179.16
400.53	1185.95
400.90	1195.78
401.27	1198.12
401.64	1195.55
402.00	1194.14
402.37	1208.65
402.74	1217.08
403.11	1234.87
403.48	1255.46
403.84	1271.85
404.21	1277.23
404.58	1296.89
404.95	1318.89
405.32	1341.83
405.68	1362.19
406.05	1381.15
406.42	1397.07
406.79	1421.17
407.16	1446.69
407.52	1473.13
407.89	1515.03
408.26	1554.35
408.63	1580.56
408.99	1603.03
409.36	1641.65
409.73	1679.80
410.10	1722.63
410.47	1776.70
410.83	1836.85
411.20	1908.47
411.57	1971.43
411.94	2045.86
412.30	2122.87
412.67	2208.53
413.04	2291.62
413.40	2386.88
413.77	2480.50
414.14	2605.95
414.51	2726.72
414.87	2865.05
415.24	3012.50
415.61	3176.34
415.97	3336.90
416.34	3524.61
416.71	3694.30
417.08	3907.52
417.44	4087.04
417.81	4317.12
418.18	4535.49
418.54	4784.52
418.91	5041.05
419.28	5344.38
419.64	5628.29
420.01	5962.75
420.38	6308.21
420.74	6625.82
421.11	7039.63
421.48	7401.48
421.84	7807.56
422.21	8234.94
422.58	8752.43
422.94	9244.88
423.31	9795.61
423.68	10353.36
424.04	10983.67
424.41	11602.27
424.77	12182.72
425.14	12853.29
425.51	13554.28
425.87	14327.12
426.24	15045.67
426.61	15932.26
426.97	16926.75
427.34	17862.73
427.70	18867.76
428.07	19926.62
428.44	20949.90
428.80	21926.84
429.17	22999.04
429.53	24002.66
429.90	25307.28
430.27	26491.35
430.63	27670.05
431.00	28995.96
431.36	30390.69
431.73	31499.63
432.09	32753.46
432.46	34015.94
432.83	35388.20
433.19	36640.38
433.56	38188.41
433.92	39736.91
434.29	41254.05
434.65	42622.09
435.02	43933.03
435.38	45137.23
435.75	46005.10
436.11	47276.71
436.48	48333.47
436.84	49423.22
437.21	50367.39
437.57	51440.76
437.94	52037.36
438.30	52590.90
438.67	52867.79
439.03	52972.41
439.40	53121.50
439.76	53001.43
440.13	52789.38
440.49	52830.81
440.86	52550.41
441.22	52156.97
441.59	51656.33
441.95	51151.00
442.32	50280.79
442.68	49523.16
443.05	48586.48
443.41	47647.22
443.78	46524.00
444.14	45428.63
444.51	44144.61
444.87	43082.94
445.24	41824.67
445.60	40718.07
445.96	39580.80
446.33	38756.70
446.69	37632.07
447.06	36796.03
447.42	35710.26
447.79	34600.84
448.15	33579.67
448.51	32577.92
448.88	31675.87
449.24	30719.06
449.61	30059.27
449.97	29262.55
450.33	28525.75
450.70	27631.66
451.06	27061.74
451.43	26261.28
451.79	25695.34
452.15	25160.99
452.52	24618.46
452.88	24002.66
453.24	23485.17
453.61	22787.69
453.97	22103.08
454.34	21501.80
454.70	20961.84
455.06	20368.75
455.43	19685.08
455.79	18949.45
456.15	18330.84
456.52	17610.42
456.88	17014.52
457.24	16442.73
457.61	16006.69
457.97	15462.75
458.33	14961.87
458.70	14405.06
459.06	13868.61
459.42	13380.37
459.79	12892.84
460.15	12457.27
460.51	12000.63
460.88	11588.46
461.24	11148.21
461.60	10775.12
461.96	10428.72
462.33	10131.01
462.69	9812.93
463.05	9524.34
463.42	9257.29
463.78	8969.40
464.14	8669.81
464.50	8450.04
464.87	8185.56
465.23	7919.90
465.59	7709.49
465.95	7505.63
466.32	7292.64
466.68	7090.89
467.04	6891.47
467.40	6684.34
467.77	6548.12
468.13	6350.11
468.49	6208.27
468.85	6085.39
469.22	5960.17
469.58	5780.42
469.94	5683.52
470.30	5562.52
470.66	5432.62
471.03	5314.65
471.39	5213.54
471.75	5077.79
472.11	4962.64
472.47	4884.00
472.84	4782.18
473.20	4653.92
473.56	4559.60
473.92	4472.53
474.28	4359.48
474.65	4264.92
475.01	4207.82
475.37	4131.98
475.73	4059.89
476.09	3995.53
476.45	3934.67
476.81	3841.99
477.18	3754.69
477.54	3660.83
477.90	3565.57
478.26	3460.72
478.62	3410.86
478.98	3364.29
479.34	3312.56
479.71	3277.22
480.07	3233.22
480.43	3191.32
480.79	3137.02
481.15	3088.57
481.51	3024.44
481.87	2997.52
482.23	2942.52
482.59	2887.99
482.96	2850.30
483.32	2820.35
483.68	2775.17
484.04	2727.66
484.40	2701.45
484.76	2653.00
485.12	2613.21
485.48	2577.16
485.84	2531.06
486.20	2487.99
486.56	2444.69
486.92	2405.84
487.28	2366.52
487.64	2336.32
488.00	2292.09
488.37	2267.98
488.73	2222.34
489.09	2203.15
489.45	2181.15
489.81	2159.61
490.17	2131.99
490.53	2107.65
490.89	2077.23
491.25	2045.16
491.61	2008.41
491.97	1981.03
492.33	1963.48
492.69	1932.81
493.05	1914.32
493.41	1916.66
493.77	1893.49
494.13	1878.98
494.49	1860.49
494.85	1849.49
495.21	1810.87
495.57	1799.64
495.93	1776.23
496.29	1751.66
496.64	1718.42
497.00	1699.23
497.36	1673.25
497.72	1650.78
498.08	1624.80
498.44	1608.88
498.80	1589.22
499.16	1572.61
499.52	1561.61
499.88	1547.33
500.24	1537.50
500.60	1533.99
500.96	1518.54
501.32	1503.56
501.68	1500.28
502.03	1484.37
502.39	1465.18
502.75	1464.71
503.11	1453.71
503.47	1441.54
503.83	1429.83
504.19	1431.71
504.55	1413.22
504.91	1405.26
505.26	1395.90
505.62	1396.83
505.98	1380.68
506.34	1365.23
506.70	1360.79
507.06	1347.68
507.42	1351.89
507.78	1345.11
508.13	1355.40
508.49	1342.06
508.85	1341.13
509.21	1320.76
509.57	1319.59
509.93	1306.49
510.28	1302.27
510.64	1299.00
511.00	1288.46
511.36	1283.78
511.72	1286.59
512.07	1286.12
512.43	1270.21
512.79	1265.53
513.15	1256.63
513.51	1241.42
513.86	1230.42
514.22	1237.21
514.58	1241.19
514.94	1243.53
515.30	1229.95
515.65	1227.85
516.01	1228.55
516.37	1224.80
516.73	1215.67
517.08	1232.29
517.44	1234.40
517.80	1228.08
518.16	1219.42
518.51	1218.01
518.87	1212.40
519.23	1204.91
519.59	1187.12
519.94	1183.37
520.30	1188.52
520.66	1187.12
521.01	1189.69
521.37	1195.78
521.73	1201.63
522.09	1193.21
522.44	1186.42
522.80	1171.20
523.16	1171.91
523.51	1161.37
523.87	1161.37
524.23	1158.10
524.58	1165.12
524.94	1168.16
525.30	1172.14
525.65	1170.03
526.01	1166.99
526.37	1167.69
526.72	1158.10
527.08	1160.44
527.44	1153.88
527.79	1159.74
528.15	1162.31
528.51	1162.78
528.86	1154.12
529.22	1159.74
529.58	1150.84
529.93	1138.44
530.29	1150.14
530.65	1163.95
531.00	1164.88
531.36	1177.06
531.71	1179.86
532.07	1163.25
532.43	1156.46
532.78	1141.95
533.14	1126.50
533.49	1122.75
533.85	1130.48
534.21	1124.63
534.56	1138.90
534.92	1144.99
535.27	1151.31
535.63	1148.73
535.98	1143.35
536.34	1135.39
536.69	1131.18
537.05	1131.65
537.41	1132.82
537.76	1130.48
538.12	1138.67
538.47	1147.10
538.83	1145.46
539.18	1139.84
539.54	1148.03
539.89	1141.01
540.25	1134.46
540.60	1135.63
540.96	1132.82
541.31	1130.24
541.67	1132.35
542.02	1139.61
542.38	1138.90
542.73	1147.56
543.09	1153.18
543.44	1153.42
543.80	1147.56
544.15	1147.10
544.51	1143.35
544.86	1134.93
545.22	1128.84
545.57	1121.82
545.93	1117.61
546.28	1115.73
546.64	1127.20
546.99	1135.16
547.35	1141.95
547.70	1146.39
548.05	1151.54
548.41	1141.01
548.76	1131.88
549.12	1126.27
549.47	1126.03
549.83	1116.90
550.18	1122.29
550.53	1117.61
550.89	1122.05
551.24	1123.69
551.60	1143.35
551.95	1139.84
552.30	1145.69
552.66	1144.29
553.01	1132.12
553.37	1128.37
553.72	1131.88
554.07	1130.24
554.43	1125.10
554.78	1131.88
555.13	1115.27
555.49	1117.14
555.84	1127.20
556.19	1127.20
556.55	1116.67
556.90	1118.07
557.26	1116.44
557.61	1109.18
557.96	1119.95
558.32	1126.27
558.67	1122.99
559.02	1119.01
559.37	1125.10
559.73	1114.10
560.08	1115.27
560.43	1115.27
560.79	1108.48
561.14	1109.65
561.49	1106.37
561.85	1106.84
562.20	1117.14
562.55	1116.67
562.90	1104.50
563.26	1120.41
563.61	1119.95
563.96	1110.35
564.32	1112.46
564.67	1123.93
565.02	1119.95
565.37	1123.22
565.73	1125.56
566.08	1120.65
566.43	1110.35
566.78	1104.26
567.14	1096.78
567.49	1099.58
567.84	1093.97
568.19	1092.80
568.54	1097.01
568.90	1094.43
569.25	1093.03
569.60	1104.50
569.95	1110.35
570.31	1108.95
570.66	1119.48
571.01	1125.56
571.36	1124.39
571.71	1116.44
572.06	1117.84
572.42	1109.88
572.77	1105.90
573.12	1109.41
573.47	1111.29
573.82	1101.69
574.18	1107.78
574.53	1107.07
574.88	1103.33
575.23	1104.03
575.58	1110.12
575.93	1107.07
576.28	1102.86
576.64	1107.54
576.99	1111.75
577.34	1115.97
577.69	1109.88
578.04	1111.75
578.39	1115.27
578.74	1112.46
579.09	1104.03
579.44	1112.69
579.80	1115.97
580.15	1100.75
580.50	1100.99
580.85	1105.20
581.20	1114.33
581.55	1112.69
581.90	1116.44
582.25	1117.37
582.60	1113.39
582.95	1098.65
583.30	1099.82
583.65	1101.92
584.00	1099.82
584.35	1107.54
584.71	1109.41
585.06	1109.88
585.41	1117.61
585.76	1120.41
586.11	1121.35
586.46	1120.41
586.81	1122.99
587.16	1110.58
587.51	1114.10
587.86	1100.52
588.21	1104.26
588.56	1097.24
588.91	1104.50
589.26	1106.14
589.61	1117.84
589.96	1106.14
590.31	1105.44
590.66	1106.84
591.01	1097.71
591.36	1092.33
591.71	1101.69
592.06	1096.31
592.41	1094.90
592.76	1103.09
593.10	1096.78
593.45	1096.07
593.80	1106.37
594.15	1100.29
594.50	1092.09
594.85	1102.63
595.20	1103.33
595.55	1101.69
595.90	1107.78
596.25	1105.20
596.60	1105.67
596.95	1111.52
597.30	1106.14
597.64	1153.18
597.99	1157.86
598.34	1149.91
598.69	1149.20
599.04	1153.42
599.39	1106.14
599.74	1103.56
600.09	1114.80
600.44	1109.88
600.78	1119.01
601.13	1122.75
601.48	1121.82
601.83	1126.03
602.18	1127.67
602.53	1113.63
602.88	1107.78
603.22	1104.73
603.57	1089.99
603.92	1087.65
604.27	1085.31
604.62	1083.67
604.97	1092.56
605.31	1092.09
605.66	1100.99
606.01	1100.29
606.36	1098.88
606.71	1094.43
607.05	1099.35
607.40	1092.80
607.75	1098.88
608.10	1118.07
608.44	1120.65
608.79	1114.80
609.14	1114.33
609.49	1118.31
609.84	1105.44
610.18	1112.69
610.53	1119.24
610.88	1104.50
611.23	1109.88
611.57	1115.97
611.92	1108.95
612.27	1110.82
612.62	1122.29
612.96	1103.33
613.31	1091.63
613.66	1092.80
614.00	1083.43
614.35	1078.05
614.70	1084.60
615.05	1084.84
615.39	1079.69
615.74	1075.48
616.09	1082.73
616.43	1081.80
616.78	1078.28
617.13	1079.92
617.47	1082.97
617.82	1074.77
618.17	1084.37
618.51	1094.43
618.86	1089.75
619.21	1096.31
619.55	1113.63
619.90	1104.03
620.25	1097.24
620.59	1103.80
620.94	1103.80
621.29	1102.39
621.63	1107.31
621.98	1107.78
622.32	1106.37
622.67	1104.97
623.02	1101.69
623.36	1100.52
623.71	1090.69
624.05	1091.39
624.40	1096.54
624.75	1088.58
625.09	1088.35
625.44	1100.05
625.78	1100.52
626.13	1088.58
626.48	1091.86
626.82	1094.90
627.17	1088.12
627.51	1086.01
627.86	1092.33
628.20	1094.20
628.55	1091.39
628.89	1088.35
629.24	1088.82
629.58	1088.12
629.93	1088.35
630.28	1091.39
630.62	1100.29
630.97	1095.60
631.31	1100.75
631.66	1104.50
632.00	1100.05
632.35	1093.50
632.69	1089.75
633.04	1087.41
633.38	1070.56
633.73	1075.94
634.07	1077.82
634.42	1085.54
634.76	1089.99
635.11	1099.35
635.45	1090.69
635.79	1095.60
636.14	1088.12
636.48	1078.75
636.83	1091.63
637.17	1099.58
637.52	1099.82
637.86	1116.20
638.21	1123.46
638.55	1112.92
638.89	1097.71
639.24	1093.97
639.58	1093.03
639.93	1090.69
640.27	1092.09
640.61	1107.07
640.96	1109.65
641.30	1103.56
641.65	1096.78
641.99	1097.24
642.33	1096.31
642.68	1096.31
643.02	1095.37
643.37	1102.86
643.71	1100.52
644.05	1096.78
644.40	1100.75
644.74	1100.05
645.08	1101.92
645.43	1097.01
645.77	1093.97
646.11	1096.31
646.46	1087.65
646.80	1091.63
647.14	1103.80
647.49	1111.29
647.83	1101.46
648.17	1118.78
648.52	1118.78
648.86	1112.46
649.20	1113.63
649.55	1117.37
649.89	1101.22
650.23	1091.63
650.57	1084.14
650.92	1086.48
651.26	1087.65
651.60	1096.31
651.95	1092.56
652.29	1101.69
652.63	1094.43
652.97	1090.46
653.32	1087.41
653.66	1094.67
654.00	1088.58
654.34	1083.90
654.69	1084.84
655.03	1080.63
655.37	1072.67
655.71	1071.50
656.05	1078.05
656.40	1067.75
656.74	1071.03
657.08	1072.67
657.42	1080.63
657.76	1082.73
658.11	1096.07
658.45	1098.41
658.79	1100.52
659.13	1095.14
659.47	1090.22
659.82	1085.31
660.16	1080.86
660.50	1079.92
660.84	1091.86
661.18	1097.01
661.52	1101.92
661.87	1106.61
662.21	1113.86
662.55	1093.97
662.89	1094.43
663.23	1096.78
663.57	1094.43
663.91	1089.29
664.25	1095.84
664.60	1092.33
664.94	1092.56
665.28	1087.18
665.62	1079.22
665.96	1081.33
666.30	1086.71
666.64	1086.01
666.98	1092.09
667.32	1093.97
667.66	1088.82
668.01	1081.33
668.35	1067.75
668.69	1064.48
669.03	1064.94
669.37	1068.45
669.71	1065.65
670.05	1082.03
670.39	1085.31
670.73	1090.92
671.07	1091.39
671.41	1090.22
671.75	1080.16
672.09	1084.37
672.43	1077.35
672.77	1074.77
673.11	1086.71
673.45	1087.41
673.79	1083.67
674.13	1089.99
674.47	1093.50
674.81	1088.12
675.15	1093.50
675.49	1100.29
675.83	1111.05
676.17	1113.63
676.51	1109.65
676.85	1109.41
677.19	1097.48
677.53	1089.05
677.87	1083.90
678.21	1088.35
678.55	1083.90
678.89	1093.97
679.23	1095.37
679.57	1098.18
679.90	1102.16
680.24	1100.52
680.58	1089.29
680.92	1073.37
681.26	1072.43
681.60	1068.69
681.94	1082.26
682.28	1080.16
682.62	1092.33
682.96	1099.35
683.29	1101.69
683.63	1093.26
683.97	1111.05
684.31	1109.88
684.65	1108.48
684.99	1100.75
685.33	1100.29
685.67	1092.09
686.00	1100.99
686.34	1096.78
686.68	1103.33
687.02	1099.12
687.36	1101.69
687.70	1091.63
688.03	1086.94
688.37	1074.54
688.71	1069.16
689.05	1066.58
689.39	1066.82
689.72	1068.92
690.06	1082.26
690.40	1090.22
690.74	1090.22
691.08	1100.05
691.41	1096.31
691.75	1102.16
692.09	1103.09
692.43	1107.78
692.76	1104.26
693.10	1113.86
693.44	1116.44
693.78	1111.29
694.11	1097.71
694.45	1102.86
694.79	1105.44
695.13	1082.73
695.46	1085.31
695.80	1096.54
696.14	1086.24
696.48	1070.80
696.81	1082.73
697.15	1087.88
697.49	1083.67
697.82	1082.03
698.16	1080.16
698.50	1079.69
698.83	1076.18
699.17	1074.77
699.51	1076.41
699.84	1081.33
700.18	1085.07
700.52	1086.01
700.85	1091.63
701.19	1095.37
701.53	1093.97
701.86	1094.20
702.20	1096.07
702.54	1096.31
702.87	1095.60
703.21	1109.41
703.55	1106.37
703.88	1105.20
704.22	1106.84
704.55	1105.44
704.89	1094.43
705.23	1090.69
705.56	1089.29
705.90	1092.09
706.23	1090.69
706.57	1093.97
706.91	1092.09
707.24	1086.48
707.58	1082.97
707.91	1086.24
708.25	1088.58
708.58	1107.78
708.92	1114.33
709.26	1108.95
709.59	1100.99
709.93	1099.12
710.26	1087.41
710.60	1083.67
710.93	1087.65
711.27	1080.86
711.60	1074.54
711.94	1070.80
712.27	1067.75
712.61	1067.75
712.94	1090.22
713.28	1097.71
713.61	1089.99
713.95	1099.12
714.28	1094.67
714.62	1080.86
714.95	1084.60
715.29	1092.33
715.62	1090.22
715.96	1093.73
716.29	1092.33
716.63	1085.54
716.96	1086.01
717.29	1081.09
717.63	1079.46
717.96	1087.65
718.30	1086.48
718.63	1083.20
718.97	1083.67
719.30	1088.82
719.63	1089.75
719.97	1093.26
720.30	1099.82
720.64	1100.99
720.97	1089.29
721.30	1081.80
721.64	1085.07
721.97	1084.14
722.31	1075.24
722.64	1089.05
722.97	1092.56
723.31	1091.86
723.64	1090.69
723.97	1097.48
724.31	1094.90
724.64	1095.60
724.98	1089.05
725.31	1088.12
725.64	1093.03
725.98	1089.52
726.31	1078.75
726.64	1083.43
726.97	1079.69
727.31	1082.26
727.64	1072.20
727.97	1084.14
728.31	1084.84
728.64	1082.73
728.97	1084.37
729.31	1090.69
729.64	1087.41
729.97	1083.20
730.30	1083.43
730.64	1075.01
730.97	1074.31
731.30	1074.31
731.63	1074.31
731.97	1079.92
732.30	1089.29
732.63	1096.31
732.96	1091.16
733.30	1084.60
733.63	1081.09
733.96	1075.94
734.29	1063.77
734.63	1075.01
734.96	1081.33
735.29	1081.56
735.62	1083.67
735.95	1084.84
736.29	1078.28
736.62	1080.16
736.95	1078.52
737.28	1086.48
737.61	1090.46
737.94	1092.80
738.28	1096.54
738.61	1100.29
738.94	1093.26
739.27	1099.12
739.60	1101.92
739.93	1102.63
740.27	1104.73
740.60	1109.88
740.93	1100.75
741.26	1103.33
741.59	1100.75
741.92	1103.33
742.25	1091.63
742.58	1105.44
742.91	1094.67
743.25	1097.71
743.58	1097.01
743.91	1103.09
744.24	1086.24
744.57	1073.84
744.90	1064.71
745.23	1055.82
745.56	1050.67
745.89	1066.58
746.22	1082.03
746.55	1086.48
746.88	1088.82
747.21	1087.88
747.54	1076.41
747.87	1071.97
748.20	1066.11
748.53	1059.79
748.87	1060.03
749.20	1067.28
749.53	1071.26
749.86	1078.28
750.19	1087.65
750.52	1086.94
750.85	1087.18
751.18	1088.12
751.51	1089.05
751.84	1098.65
752.16	1097.24
752.49	1103.33
752.82	1104.97
753.15	1099.82
753.48	1081.09
753.81	1086.24
754.14	1072.43
754.47	1075.01
754.80	1084.84
755.13	1087.65
755.46	1084.14
755.79	1081.80
756.12	1086.01
756.45	1071.03
756.78	1078.28
757.11	1087.41
757.43	1093.26
757.76	1087.65
758.09	1088.35
758.42	1079.46
758.75	1071.73
759.08	1065.41
759.41	1056.75
759.74	1064.71
760.07	1076.18
760.39	1076.41
760.72	1075.71
761.05	1082.97
761.38	1080.39
761.71	1061.43
762.04	1062.37
762.36	1078.05
762.69	1075.48
763.02	1074.31
763.35	1089.52
763.68	1079.46
764.01	1070.09
764.33	1073.14
764.66	1065.18
764.99	1065.18
765.32	1075.94
765.65	1077.82
765.97	1070.80
766.30	1086.71
766.63	1086.94
766.96	1079.69
767.28	1084.84
767.61	1098.18
767.94	1097.24
768.27	1097.24
768.59	1108.24
768.92	1099.12
769.25	1091.16
769.58	1082.73
769.90	1083.67
770.23	1083.43
770.56	1097.24
770.89	1103.56
771.21	1117.84
771.54	1108.48
771.87	1108.01
772.19	1094.43
772.52	1091.39
772.85	1083.20
773.17	1085.77
773.50	1076.88
773.83	1084.37
774.15	1077.11
774.48	1082.50
774.81	1086.48
775.13	1086.48
775.46	1074.77
775.79	1079.46
776.11	1078.75
776.44	1078.75
776.77	1083.67
777.09	1093.03
777.42	1092.80
777.74	1085.77
778.07	1084.84
778.40	1089.29
778.72	1093.03
779.05	1086.01
779.37	1083.20
779.70	1080.63
780.03	1070.33
780.35	1058.16
780.68	1076.18
781.00	1082.03
781.33	1077.35
781.65	1080.63
781.98	1089.29
782.31	1078.05
782.63	1071.26
782.96	1087.88
783.28	1093.73
783.61	1088.82
783.93	1093.97
784.26	1094.90
784.58	1094.43
784.91	1095.14
785.23	1098.41
785.56	1087.41
785.88	1091.39
786.21	1078.75
786.53	1081.09
786.86	1076.65
787.18	1078.52
787.51	1083.20
787.83	1089.99
788.16	1078.28
788.48	1078.75
788.81	1080.63
789.13	1075.94
789.46	1071.97
789.78	1073.60
790.10	1077.35
790.43	1083.90
790.75	1080.63
791.08	1089.29
791.40	1097.95
791.73	1102.63
792.05	1089.75
792.37	1089.75
792.70	1083.20
793.02	1076.18
793.35	1067.75
793.67	1075.71
793.99	1077.82
794.32	1081.33
794.64	1082.73
794.96	1079.92
795.29	1080.86
795.61	1073.37
795.93	1065.41
796.26	1074.31
796.58	1079.46
796.91	1078.28
797.23	1083.67
797.55	1084.84
797.87	1077.11
798.20	1089.29
798.52	1083.67
798.84	1082.03
799.17	1085.31
799.49	1082.73
799.81	1072.43
800.14	1081.09
800.46	1078.99
800.78	1079.46
801.10	1084.84
801.43	1078.99
801.75	1078.05
802.07	1088.58
802.40	1093.50
802.72	1087.65
803.04	1080.16
803.36	1069.39
803.69	1067.05
804.01	1055.11
804.33	1058.62
804.65	1061.90
804.97	1065.41
805.30	1060.26
805.62	1062.60
805.94	1063.31
806.26	1074.31
806.58	1078.05
806.91	1081.09
807.23	1077.35
807.55	1085.31
807.87	1076.65
808.19	1074.54
808.52	1078.28
808.84	1083.43
809.16	1070.80
809.48	1080.39
809.80	1082.03
810.12	1079.46
810.44	1084.37
810.77	1084.84
811.09	1087.41
811.41	1090.22
811.73	1088.35
812.05	1097.48
812.37	1093.03
812.69	1088.35
813.01	1083.90
813.33	1085.07
813.66	1064.94
813.98	1061.67
814.30	1057.69
814.62	1060.26
814.94	1059.56
815.26	1066.11
815.58	1083.90
815.90	1089.05
816.22	1093.03
816.54	1088.35
816.86	1081.33
817.18	1073.14
817.50	1061.67
817.82	1051.84
818.14	1057.45
818.46	1071.26
818.78	1074.77
819.10	1081.56
819.42	1085.77
819.74	1093.03
820.06	1083.67
820.38	1085.31
820.70	1096.31
821.02	1107.07
821.34	1106.37
821.66	1113.39
821.98	1112.46
822.30	1094.90
822.62	1091.16
822.94	1086.71
823.26	1075.48
823.58	1067.75
823.90	1078.99
824.22	1071.03
824.54	1064.48
824.86	1070.33
825.18	1085.54
825.50	1076.88
825.81	1079.46
826.13	1070.09
826.45	1075.24
826.77	1059.56
827.09	1073.60
827.41	1079.69
827.73	1091.63
828.05	1092.80
828.36	1093.03
828.68	1080.39
829.00	1072.67
829.32	1070.33
829.64	1062.37
829.96	1066.35
830.28	1068.69
830.59	1071.97
830.91	1065.18
831.23	1067.52
831.55	1071.73
831.87	1072.20
832.19	1066.35
832.50	1064.94
832.82	1065.88
833.14	1055.35
833.46	1060.50
833.78	1066.58
834.09	1080.16
834.41	1077.35
834.73	1079.92
835.05	1076.88
835.36	1068.45
835.68	1065.65
836.00	1064.01
836.32	1071.26
836.63	1074.77
836.95	1083.67
837.27	1095.37
837.59	1104.97
837.90	1097.95
838.22	1087.65
838.54	1079.46
838.85	1078.99
839.17	1078.99
839.49	1089.52
839.80	1097.71
840.12	1105.44
840.44	1093.73
840.76	1085.54
841.07	1080.86
841.39	1077.35
841.71	1083.20
842.02	1077.35
842.34	1075.24
842.65	1072.20
842.97	1072.90
843.29	1068.69
843.60	1081.09
843.92	1085.07
844.24	1082.97
844.55	1085.77
844.87	1085.77
845.18	1075.01
845.50	1076.65
845.82	1071.03
846.13	1073.84
846.45	1060.03
846.76	1066.35
847.08	1064.48
847.40	1080.86
847.71	1086.24
848.03	1096.78
848.34	1098.65
848.66	1104.26
848.97	1096.31
849.29	1086.01
849.60	1088.58
849.92	1082.73
850.24	1071.50
850.55	1073.37
850.87	1074.07
851.18	1068.22
851.50	1064.94
851.81	1069.62
852.13	1068.69
852.44	1066.82
852.76	1074.31
853.07	1083.67
853.39	1081.33
853.70	1089.99
854.01	1090.22
854.33	1085.07
854.64	1080.86
854.96	1091.39
855.27	1088.82
855.59	1088.82
855.90	1095.37
856.22	1093.73
856.53	1087.18
856.84	1082.26
857.16	1093.03
857.47	1094.67
857.79	1096.54
858.10	1103.56
858.41	1100.29
858.73	1089.99
859.04	1085.54
859.36	1093.97
859.67	1082.97
859.98	1081.09
860.30	1075.01
860.61	1068.92
860.92	1060.50
861.24	1060.73
861.55	1069.16
861.87	1072.20
862.18	1076.18
862.49	1081.09
862.81	1084.37
863.12	1078.28
863.43	1080.16
863.74	1088.12
864.06	1085.77
864.37	1091.16
864.68	1094.20
865.00	1098.18
865.31	1082.50
865.62	1078.05
865.94	1077.35
866.25	1076.41
866.56	1076.88
866.87	1084.84
867.19	1101.46
867.50	1087.88
867.81	1092.33
868.12	1093.50
868.44	1082.97
868.75	1070.09
869.06	1078.52
869.37	1072.43
869.68	1075.01
870.00	1095.60
870.31	1088.12
870.62	1092.09
870.93	1090.69
871.24	1084.14
871.56	1078.75
871.87	1085.77
872.18	1095.84
872.49	1098.18
872.80	1097.95
873.12	1102.39
873.43	1101.69
873.74	1090.46
874.05	1089.75
874.36	1102.39
874.67	1093.97
874.98	1095.60
875.29	1100.52
875.61	1096.78
875.92	1079.92
876.23	1070.09
876.54	1061.20
876.85	1060.03
877.16	1061.90
877.47	1071.03
877.78	1069.86
878.09	1070.56
878.40	1061.67
878.72	1064.01
879.03	1065.88
879.34	1080.39
879.65	1093.03
879.96	1102.16
880.27	1100.99
880.58	1091.86
880.89	1084.84
881.20	1086.94
881.51	1090.92
881.82	1090.92
882.13	1093.26
882.44	1092.80
882.75	1097.01
883.06	1094.67
883.37	1092.33
883.68	1096.07
883.99	1101.46
884.30	1086.01
884.61	1077.11
884.92	1084.37
885.23	1077.82
885.54	1078.05
885.85	1085.77
886.16	1085.07
886.47	1080.39
886.78	1089.29
887.08	1085.31
887.39	1089.05
887.70	1098.65
888.01	1102.86
888.32	1096.31
888.63	1089.52
888.94	1081.09
889.25	1066.58
889.56	1064.94
889.87	1059.56
890.17	1070.80
890.48	1076.41
890.79	1091.16
891.10	1095.14
891.41	1108.71
891.72	1102.63
892.03	1092.80
892.34	1083.20
892.64	1076.88
892.95	1075.01
893.26	1073.37
893.57	1071.50
893.88	1079.46
894.18	1075.01
894.49	1067.75
894.80	1067.05
895.11	1066.35
895.42	1053.71
895.72	1065.18
896.03	1067.99
896.34	1067.52
896.65	1078.52
896.96	1089.05
897.26	1082.97
897.57	1081.33
897.88	1084.60
898.19	1081.09
898.49	1077.82
898.80	1073.84
899.11	1077.35
899.41	1081.33
899.72	1072.43
900.03	1068.45
900.34	1079.22
900.64	1071.03
900.95	1070.80
901.26	1086.01
901.56	1096.54
901.87	1089.75
902.18	1097.48
902.48	1093.73
902.79	1076.65
903.10	1080.86
903.40	1081.33
903.71	1079.46
904.02	1084.14
904.32	1090.46
904.63	1087.41
904.94	1089.29
905.24	1097.71
905.55	1092.09
905.85	1099.12
906.16	1102.16
906.47	1094.90
906.77	1085.77
907.08	1090.46
907.38	1087.88
907.69	1085.54
908.00	1096.54
908.30	1101.92
908.61	1100.29
908.91	1097.71
909.22	1081.80
909.52	1077.11
909.83	1073.14
910.14	1077.58
910.44	1077.11
910.75	1088.12
911.05	1092.33
911.36	1096.31
911.66	1096.78
911.97	1099.12
912.27	1110.82
912.58	1125.33
912.88	1129.07
913.19	1127.20
913.49	1119.95
913.80	1103.56
914.10	1083.67
914.41	1079.69
914.71	1080.16
915.01	1093.97
915.32	1091.63
915.62	1086.48
915.93	1079.46
916.23	1079.46
916.54	1077.58
916.84	1079.69
917.15	1079.69
917.45	1078.28
917.75	1082.03
918.06	1076.88
918.36	1073.60
918.67	1076.18
918.97	1081.33
919.27	1069.86
919.58	1066.58
919.88	1079.92
920.18	1089.99
920.49	1089.99
920.79	1104.03
921.10	1114.80
921.40	1103.33
921.70	1094.43
922.01	1093.26
922.31	1086.94
922.61	1076.41
922.92	1081.56
923.22	1084.84
923.52	1083.20
923.82	1081.56
924.13	1084.60
924.43	1086.24
924.73	1084.14
925.04	1086.01
925.34	1085.77
925.64	1087.41
925.94	1078.52
926.25	1082.26
926.55	1081.09
926.85	1079.69
927.15	1070.56
927.46	1078.52
927.76	1075.48
928.06	1082.73
928.36	1087.18
928.67	1088.12
928.97	1086.71
929.27	1080.86
929.57	1075.48
929.87	1069.62
930.18	1078.28
930.48	1072.67
930.78	1086.01
931.08	1081.33
931.38	1084.60
931.69	1073.60
931.99	1086.48
932.29	1075.48
932.59	1073.84
932.89	1066.82
933.19	1080.39
933.49	1069.16
933.80	1066.82
934.10	1074.54
934.40	1083.90
934.70	1072.67
935.00	1072.43
935.30	1082.50
935.60	1074.31
935.90	1071.97
936.20	1080.86
936.50	1081.09
936.81	1071.97
937.11	1078.52
937.41	1081.33
937.71	1079.46
938.01	1083.43
938.31	1089.52
938.61	1084.60
938.91	1078.52
939.21	1083.20
939.51	1080.63
939.81	1075.94
940.11	1084.37
940.41	1089.05
940.71	1085.31
941.01	1084.60
941.31	1086.01
941.61	1082.50
941.91	1070.56
942.21	1064.71
942.51	1066.11
942.81	1063.07
943.11	1066.82
943.41	1074.07
943.71	1083.67
944.01	1084.37
944.31	1087.65
944.61	1077.35
944.90	1075.71
945.20	1069.86
945.50	1072.20
945.80	1074.07
946.10	1083.20
946.40	1082.03
946.70	1076.88
947.00	1072.43
947.30	1077.82
947.60	1073.37
947.89	1074.31
948.19	1081.56
948.49	1082.03
948.79	1073.84
949.09	1071.73
949.39	1077.58
949.69	1068.22
949.98	1069.39
950.28	1064.94
950.58	1067.05
950.88	1061.20
951.18	1071.03
951.48	1075.01
951.77	1080.16
952.07	1082.03
952.37	1084.37
952.67	1081.80
952.97	1075.71
953.26	1076.18
953.56	1066.11
953.86	1069.86
954.16	1086.71
954.45	1085.54
954.75	1083.67
955.05	1088.58
955.35	1089.99
955.64	1076.65
955.94	1072.67
956.24	1068.69
956.54	1074.07
956.83	1073.14
957.13	1070.80
957.43	1083.90
957.72	1084.84
958.02	1087.41
958.32	1089.99
958.61	1088.58
958.91	1088.12
959.21	1101.92
959.50	1098.41
959.80	1096.54
960.10	1096.31
960.39	1093.73
960.69	1085.31
960.99	1085.31
961.28	1085.31
961.58	1078.75
961.87	1079.92
962.17	1077.58
962.47	1081.09
962.76	1076.18
963.06	1087.41
963.36	1084.60
963.65	1081.56
963.95	1083.43
964.24	1088.82
964.54	1079.22
964.83	1076.65
965.13	1086.94
965.42	1077.58
965.72	1067.05
966.02	1068.92
966.31	1066.58
966.61	1064.01
966.90	1060.73
967.20	1073.60
967.49	1069.62
967.79	1073.60
968.08	1070.80
968.38	1080.16
968.67	1076.88
968.97	1084.37
969.26	1078.05
969.56	1080.86
969.85	1075.24
970.15	1068.22
970.44	1065.18
970.74	1078.99
971.03	1072.43
971.32	1076.18
971.62	1081.33
971.91	1089.05
972.21	1073.60
972.50	1077.82
972.80	1075.71
973.09	1078.99
973.38	1074.54
973.68	1086.48
973.97	1085.77
974.27	1079.69
974.56	1076.18
974.85	1080.16
975.15	1076.65
975.44	1076.41
975.73	1079.69
976.03	1070.80
976.32	1070.80
976.61	1075.01
976.91	1073.60
977.20	1077.35
977.49	1079.22
977.79	1073.60
978.08	1070.80
978.37	1067.05
978.67	1059.33
978.96	1071.50
979.25	1063.54
979.55	1065.88
979.84	1068.22
980.13	1072.90
980.42	1061.43
980.72	1063.54
981.01	1057.69
981.30	1057.45
981.59	1055.82
981.89	1049.96
982.18	1052.30
982.47	1052.54
982.76	1057.69
983.06	1061.67
983.35	1065.65
983.64	1064.71
983.93	1059.33
984.22	1056.75
984.52	1060.50
984.81	1073.84
985.10	1079.69
985.39	1087.65
985.68	1082.50
985.97	1076.88
986.27	1068.22
986.56	1055.82
986.85	1056.05
987.14	1049.73
987.43	1045.05
987.72	1054.18
988.01	1077.58
988.31	1077.82
988.60	1099.82
988.89	1101.22
989.18	1103.09
989.47	1092.33
989.76	1091.16
990.05	1073.37
990.34	1079.92
990.63	1076.65
990.92	1078.75
991.21	1080.86
991.51	1097.24
991.80	1094.20
992.09	1078.99
992.38	1072.90
992.67	1064.94
992.96	1064.24
993.25	1067.52
993.54	1079.92
993.83	1091.16
994.12	1086.48
994.41	1078.05
994.70	1086.01
994.99	1085.54
995.28	1087.41
995.57	1103.33
995.86	1097.71
996.15	1088.12
996.44	1083.43
996.73	1083.20
997.02	1078.99
997.31	1091.39
997.59	1092.56
997.88	1094.43
998.17	1086.48
998.46	1077.11
998.75	1062.37
999.04	1062.60
999.33	1060.73
999.62	1060.73
999.91	1068.69
1000.20	1078.52
1000.49	1075.71
1000.77	1077.11
1001.06	1070.56
1001.35	1065.41
1001.64	1070.80
1001.93	1072.90
1002.22	1069.86
1002.51	1087.65
1002.79	1088.12
1003.08	1086.71
1003.37	1091.16
1003.66	1102.39
1003.95	1086.24
1004.23	1084.84
1004.52	1078.75
1004.81	1074.31
1005.10	1067.05
1005.39	1068.69
1005.67	1081.09
1005.96	1090.46
1006.25	1094.67
1006.54	1095.14
1006.83	1091.16
1007.11	1080.16
1007.40	1075.48
1007.69	1068.45
1007.97	1067.99
1008.26	1072.67
1008.55	1078.99
1008.84	1068.22
1009.12	1064.48
1009.41	1063.07
1009.70	1073.37
1009.98	1067.28
1010.27	1079.69
1010.56	1084.37
1010.85	1087.18
1011.13	1087.88
1011.42	1104.50
1011.71	1096.07
1011.99	1099.58
1012.28	1093.97
1012.56	1083.20
1012.85	1072.67
1013.14	1078.52
1013.42	1077.82
1013.71	1085.54
1014.00	1091.16
1014.28	1085.07
1014.57	1088.58
1014.85	1090.92
1015.14	1086.71
1015.43	1075.01
1015.71	1077.82
1016.00	1074.31
1016.28	1081.56
1016.57	1087.41
1016.85	1100.05
1017.14	1095.60
1017.43	1098.88
1017.71	1092.80
1018.00	1087.65
1018.28	1089.52
1018.57	1090.92
1018.85	1086.71
1019.14	1084.60
1019.42	1088.35
1019.71	1079.69
1019.99	1081.09
1020.28	1078.75
1020.56	1078.99
1020.85	1077.58
1021.13	1082.73
1021.42	1083.43
1021.70	1080.86
1021.99	1077.11
1022.27	1069.86
1022.55	1071.97
1022.84	1056.75
>>>>>End Processed Spectral Data<<<<<
