SpectraSuite Data File
++++++++++++++++++++++++++++++++++++
Date: Mon Aug 26 10:24:47 PDT 2019
User: corrico
Dark Spectrum Present: No
Reference Spectrum Present: No
Number of Sampled Component Spectra: 1
Spectrometers: USB2+H06089
Integration Time (usec): 10000 (USB2+H06089)
Spectra Averaged: 2 (USB2+H06089)
Boxcar Smoothing: 2 (USB2+H06089)
Correct for Electrical Dark: No (USB2+H06089)
Strobe/Lamp Enabled: No (USB2+H06089)
Correct for Detector Non-linearity: No (USB2+H06089)
Correct for Stray Light: No (USB2+H06089)
Number of Pixels in Processed Spectrum: 2048
>>>>>Begin Processed Spectral Data<<<<<
339.70	1034.52
340.07	1034.52
340.45	987.71
340.82	962.90
341.19	938.32
341.57	908.13
341.94	890.57
342.31	888.94
342.69	886.59
343.06	883.55
343.43	887.77
343.81	904.62
344.18	904.62
344.55	913.28
344.93	915.38
345.30	917.26
345.67	911.87
346.04	923.11
346.42	926.15
346.79	937.85
347.16	947.21
347.54	956.11
347.91	966.17
348.28	972.96
348.65	982.32
349.03	987.00
349.40	998.47
349.77	1007.13
350.14	1029.37
350.52	1038.03
350.89	1049.26
351.26	1056.05
351.63	1057.69
352.01	1054.88
352.38	1057.45
352.75	1066.11
353.12	1072.20
353.50	1081.80
353.87	1085.54
354.24	1089.52
354.61	1091.39
354.98	1097.71
355.36	1095.84
355.73	1089.29
356.10	1093.97
356.47	1093.73
356.84	1078.52
357.22	1084.14
357.59	1095.37
357.96	1092.80
358.33	1094.90
358.70	1111.05
359.08	1104.50
359.45	1102.86
359.82	1108.24
360.19	1093.97
360.56	1092.33
360.94	1096.07
361.31	1092.80
361.68	1089.05
362.05	1105.90
362.42	1093.97
362.79	1092.80
363.16	1087.88
363.54	1086.24
363.91	1079.92
364.28	1089.99
364.65	1094.20
365.02	1092.80
365.39	1094.43
365.76	1094.20
366.14	1079.92
366.51	1066.11
366.88	1071.26
367.25	1074.31
367.62	1081.33
367.99	1100.99
368.36	1111.05
368.73	1105.90
369.10	1094.20
369.48	1084.60
369.85	1068.92
370.22	1072.90
370.59	1082.50
370.96	1078.75
371.33	1083.67
371.70	1085.54
372.07	1091.16
372.44	1084.14
372.81	1089.29
373.18	1087.65
373.55	1088.58
373.93	1076.41
374.30	1077.82
374.67	1088.12
375.04	1085.77
375.41	1093.50
375.78	1101.92
376.15	1099.82
376.52	1094.20
376.89	1102.63
377.26	1099.82
377.63	1100.29
378.00	1099.82
378.37	1100.29
378.74	1090.69
379.11	1095.60
379.48	1096.54
379.85	1111.52
380.22	1107.54
380.59	1100.99
380.96	1097.24
381.33	1088.12
381.70	1075.24
382.07	1077.82
382.44	1095.37
382.81	1096.54
383.18	1102.63
383.55	1102.63
383.92	1110.35
384.29	1100.52
384.66	1097.24
385.03	1099.12
385.40	1093.73
385.77	1078.75
386.14	1075.48
386.51	1078.75
386.88	1067.52
387.25	1084.37
387.62	1092.56
387.99	1105.20
388.36	1110.58
388.73	1118.78
389.10	1114.10
389.46	1118.54
389.83	1118.07
390.20	1105.90
390.57	1108.71
390.94	1099.12
391.31	1095.37
391.68	1091.16
392.05	1096.78
392.42	1102.16
392.79	1107.78
393.16	1110.12
393.53	1110.35
393.89	1099.35
394.26	1091.16
394.63	1096.78
395.00	1097.01
395.37	1096.31
395.74	1122.05
396.11	1134.69
396.48	1128.14
396.84	1121.82
397.21	1117.14
397.58	1101.69
397.95	1090.69
398.32	1091.16
398.69	1101.46
399.06	1120.88
399.42	1132.59
399.79	1132.12
400.16	1138.67
400.53	1148.27
400.90	1149.67
401.27	1150.61
401.64	1157.39
402.00	1164.65
402.37	1161.61
402.74	1157.39
403.11	1155.52
403.48	1166.99
403.84	1169.57
404.21	1191.57
404.58	1204.44
404.95	1223.63
405.32	1235.80
405.68	1257.10
406.05	1242.59
406.42	1260.14
406.79	1273.49
407.16	1280.51
407.52	1307.42
407.89	1342.30
408.26	1354.94
408.63	1376.00
408.99	1401.28
409.36	1409.94
409.73	1432.64
410.10	1455.58
410.47	1486.71
410.83	1523.92
411.20	1556.69
411.57	1592.50
411.94	1652.65
412.30	1687.53
412.67	1742.29
413.04	1802.21
413.40	1857.22
413.77	1914.09
414.14	1989.69
414.51	2047.50
414.87	2121.46
415.24	2198.93
415.61	2266.57
415.97	2349.66
416.34	2452.41
416.71	2530.12
417.08	2642.46
417.44	2758.32
417.81	2882.14
418.18	2998.93
418.54	3130.23
418.91	3267.62
419.28	3414.61
419.64	3565.10
420.01	3735.03
420.38	3911.27
420.74	4080.96
421.11	4279.90
421.48	4500.85
421.84	4712.67
422.21	4956.79
422.58	5214.95
422.94	5482.47
423.31	5749.06
423.68	6046.31
424.04	6363.68
424.41	6711.25
424.77	7017.86
425.14	7336.18
425.51	7661.04
425.87	8033.19
426.24	8368.12
426.61	8789.18
426.97	9298.25
427.34	9815.97
427.70	10327.85
428.07	10850.02
428.44	11412.92
428.80	11920.58
429.17	12488.16
429.53	13044.74
429.90	13710.62
430.27	14294.59
430.63	14919.04
431.00	15579.07
431.36	16318.68
431.73	16958.12
432.09	17664.49
432.46	18395.44
432.83	19040.26
433.19	19617.20
433.56	20323.34
433.92	21022.46
434.29	21661.66
434.65	22428.42
435.02	23084.00
435.38	23725.07
435.75	24252.40
436.11	24904.94
436.48	25405.81
436.84	26048.06
437.21	26564.61
437.57	27091.70
437.94	27518.85
438.30	27825.46
438.67	27977.59
439.03	28168.82
439.40	28397.02
439.76	28288.42
440.13	28222.65
440.49	28234.58
440.86	27960.27
441.22	27568.70
441.59	27292.99
441.95	26997.61
442.32	26464.20
442.68	26043.14
443.05	25542.03
443.41	24981.47
443.78	24306.46
444.14	23748.25
444.51	23087.98
444.87	22616.13
445.24	22049.48
445.60	21577.63
445.96	21052.65
446.33	20599.76
446.69	19952.60
447.06	19464.13
447.42	18890.00
447.79	18279.58
448.15	17770.28
448.51	17302.64
448.88	16885.56
449.24	16480.88
449.61	16155.78
449.97	15740.57
450.33	15336.59
450.70	14868.02
451.06	14506.41
451.43	13996.40
451.79	13623.79
452.15	13264.05
452.52	12958.61
452.88	12623.45
453.24	12377.92
453.61	12111.34
453.97	11825.79
454.34	11496.95
454.70	11190.57
455.06	10931.71
455.43	10583.20
455.79	10204.03
456.15	9881.98
456.52	9520.36
456.88	9209.77
457.24	8891.23
457.61	8707.96
457.97	8470.63
458.33	8234.00
458.70	7975.14
459.06	7721.66
459.42	7455.07
459.79	7216.57
460.15	7012.01
460.51	6814.47
460.88	6620.44
461.24	6404.17
461.60	6208.51
461.96	5992.24
462.33	5792.12
462.69	5615.18
463.05	5450.87
463.42	5302.02
463.78	5166.03
464.14	5042.68
464.50	4935.25
464.87	4813.08
465.23	4667.50
465.59	4574.58
465.95	4445.38
466.32	4334.67
466.68	4231.22
467.04	4147.90
467.40	4043.28
467.77	3958.78
468.13	3882.71
468.49	3800.33
468.85	3733.15
469.22	3683.54
469.58	3619.17
469.94	3563.00
470.30	3511.51
470.66	3458.84
471.03	3363.58
471.39	3316.54
471.75	3243.28
472.11	3182.43
472.47	3131.64
472.84	3088.10
473.20	3015.08
473.56	2974.82
473.92	2917.95
474.28	2855.22
474.65	2816.60
475.01	2783.37
475.37	2716.89
475.73	2670.79
476.09	2640.83
476.45	2586.99
476.81	2547.44
477.18	2508.59
477.54	2475.35
477.90	2429.94
478.26	2385.94
478.62	2339.13
478.98	2318.53
479.34	2297.94
479.71	2263.30
480.07	2246.21
480.43	2235.45
480.79	2207.13
481.15	2180.44
481.51	2151.89
481.87	2132.93
482.23	2098.06
482.59	2071.61
482.96	2037.90
483.32	2011.69
483.68	1992.26
484.04	1977.05
484.40	1968.16
484.76	1939.13
485.12	1925.79
485.48	1892.32
485.84	1870.56
486.20	1842.00
486.56	1832.87
486.92	1820.00
487.28	1804.08
487.64	1786.53
488.00	1783.96
488.37	1760.79
488.73	1727.32
489.09	1711.17
489.45	1696.89
489.81	1674.42
490.17	1670.91
490.53	1665.53
490.89	1653.82
491.25	1633.46
491.61	1611.69
491.97	1581.03
492.33	1566.75
492.69	1546.16
493.05	1520.88
493.41	1503.33
493.77	1499.82
494.13	1487.64
494.49	1485.77
494.85	1484.60
495.21	1476.41
495.57	1466.58
495.93	1462.83
496.29	1449.03
496.64	1436.15
497.00	1433.58
497.36	1415.32
497.72	1393.32
498.08	1379.04
498.44	1375.53
498.80	1357.04
499.16	1360.09
499.52	1351.89
499.88	1352.83
500.24	1344.17
500.60	1345.57
500.96	1326.62
501.32	1329.19
501.68	1330.36
502.03	1326.15
502.39	1303.91
502.75	1302.98
503.11	1293.38
503.47	1277.46
503.83	1266.23
504.19	1273.72
504.55	1271.14
504.91	1267.17
505.26	1257.80
505.62	1259.68
505.98	1245.17
506.34	1239.55
506.70	1230.89
507.06	1227.14
507.42	1225.50
507.78	1228.08
508.13	1226.21
508.49	1227.14
508.85	1228.78
509.21	1225.04
509.57	1225.74
509.93	1213.33
510.28	1201.63
510.64	1197.89
511.00	1182.67
511.36	1184.08
511.72	1194.61
512.07	1200.46
512.43	1195.08
512.79	1196.72
513.15	1192.97
513.51	1188.99
513.86	1187.59
514.22	1177.99
514.58	1176.59
514.94	1168.63
515.30	1157.86
515.65	1150.37
516.01	1154.35
516.37	1156.69
516.73	1147.10
517.08	1146.63
517.44	1142.18
517.80	1137.73
518.16	1132.35
518.51	1136.33
518.87	1140.31
519.23	1149.44
519.59	1146.16
519.94	1149.67
520.30	1149.44
520.66	1141.25
521.01	1137.50
521.37	1130.71
521.73	1125.10
522.09	1122.05
522.44	1129.78
522.80	1132.12
523.16	1147.80
523.51	1151.08
523.87	1147.33
524.23	1146.16
524.58	1139.37
524.94	1126.03
525.30	1127.44
525.65	1129.54
526.01	1127.44
526.37	1127.90
526.72	1140.07
527.08	1137.03
527.44	1145.46
527.79	1138.44
528.15	1142.18
528.51	1138.20
528.86	1126.27
529.22	1118.54
529.58	1116.20
529.93	1108.95
530.29	1106.84
530.65	1116.20
531.00	1110.35
531.36	1111.52
531.71	1108.01
532.07	1108.95
532.43	1111.52
532.78	1104.73
533.14	1110.35
533.49	1115.50
533.85	1112.46
534.21	1105.67
534.56	1112.92
534.92	1117.37
535.27	1119.71
535.63	1120.41
535.98	1119.71
536.34	1126.97
536.69	1115.50
537.05	1111.52
537.41	1107.78
537.76	1101.69
538.12	1095.37
538.47	1101.69
538.83	1101.22
539.18	1093.50
539.54	1102.16
539.89	1097.71
540.25	1083.67
540.60	1084.37
540.96	1089.75
541.31	1086.71
541.67	1091.39
542.02	1108.95
542.38	1110.82
542.73	1108.24
543.09	1113.86
543.44	1121.58
543.80	1111.29
544.15	1097.24
544.51	1107.54
544.86	1097.24
545.22	1101.69
545.57	1104.50
545.93	1115.03
546.28	1127.67
546.64	1129.54
546.99	1123.46
547.35	1116.20
547.70	1112.92
548.05	1096.31
548.41	1098.18
548.76	1097.48
549.12	1109.88
549.47	1107.31
549.83	1104.26
550.18	1109.18
550.53	1112.92
550.89	1122.75
551.24	1128.61
551.60	1131.88
551.95	1135.16
552.30	1123.69
552.66	1121.12
553.01	1111.05
553.37	1110.35
553.72	1102.39
554.07	1102.39
554.43	1090.92
554.78	1109.65
555.13	1115.97
555.49	1126.73
555.84	1134.93
556.19	1143.82
556.55	1137.27
556.90	1133.29
557.26	1129.31
557.61	1124.63
557.96	1114.80
558.32	1112.22
558.67	1108.48
559.02	1101.69
559.37	1108.95
559.73	1113.63
560.08	1105.90
560.43	1107.07
560.79	1109.88
561.14	1101.46
561.49	1107.07
561.85	1109.88
562.20	1111.52
562.55	1108.01
562.90	1110.35
563.26	1096.54
563.61	1103.09
563.96	1107.31
564.32	1107.07
564.67	1101.46
565.02	1095.84
565.37	1089.05
565.73	1077.11
566.08	1078.05
566.43	1081.09
566.78	1095.60
567.14	1101.92
567.49	1116.90
567.84	1119.95
568.19	1123.93
568.54	1121.35
568.90	1124.39
569.25	1124.39
569.60	1122.99
569.95	1119.24
570.31	1121.35
570.66	1112.22
571.01	1097.71
571.36	1098.65
571.71	1100.75
572.06	1094.67
572.42	1097.01
572.77	1103.80
573.12	1098.18
573.47	1103.56
573.82	1106.37
574.18	1101.69
574.53	1097.71
574.88	1101.22
575.23	1095.37
575.58	1088.12
575.93	1096.31
576.28	1096.07
576.64	1093.73
576.99	1093.03
577.34	1093.03
577.69	1087.88
578.04	1089.52
578.39	1091.63
578.74	1091.63
579.09	1104.03
579.44	1109.18
579.80	1104.97
580.15	1095.84
580.50	1091.39
580.85	1084.60
581.20	1082.26
581.55	1083.67
581.90	1093.73
582.25	1099.35
582.60	1104.50
582.95	1105.20
583.30	1106.37
583.65	1102.16
584.00	1096.07
584.35	1097.71
584.71	1094.20
585.06	1104.73
585.41	1113.39
585.76	1113.86
586.11	1102.39
586.46	1109.88
586.81	1105.90
587.16	1096.31
587.51	1093.97
587.86	1096.07
588.21	1083.90
588.56	1076.88
588.91	1071.73
589.26	1081.56
589.61	1091.86
589.96	1096.07
590.31	1097.01
590.66	1110.82
591.01	1105.44
591.36	1091.86
591.71	1097.24
592.06	1092.80
592.41	1085.31
592.76	1088.82
593.10	1090.92
593.45	1092.09
593.80	1098.18
594.15	1104.03
594.50	1097.71
594.85	1099.58
595.20	1099.82
595.55	1100.52
595.90	1099.35
596.25	1104.26
596.60	1097.48
596.95	1094.20
597.30	1093.03
597.64	1133.29
597.99	1134.69
598.34	1149.20
598.69	1149.67
599.04	1147.33
599.39	1114.33
599.74	1103.80
600.09	1096.07
600.44	1100.75
600.78	1108.95
601.13	1100.75
601.48	1110.82
601.83	1108.71
602.18	1095.60
602.53	1090.46
602.88	1086.24
603.22	1089.29
603.57	1089.05
603.92	1093.03
604.27	1092.09
604.62	1100.05
604.97	1096.07
605.31	1099.82
605.66	1098.18
606.01	1095.60
606.36	1094.90
606.71	1095.14
607.05	1091.86
607.40	1090.46
607.75	1097.95
608.10	1098.88
608.44	1093.73
608.79	1100.29
609.14	1113.86
609.49	1117.37
609.84	1115.27
610.18	1119.01
610.53	1117.37
610.88	1119.24
611.23	1119.71
611.57	1116.44
611.92	1120.65
612.27	1115.50
612.62	1092.33
612.96	1081.56
613.31	1084.84
613.66	1070.09
614.00	1067.75
614.35	1072.43
614.70	1072.90
615.05	1071.73
615.39	1084.60
615.74	1091.16
616.09	1100.05
616.43	1099.58
616.78	1092.56
617.13	1094.43
617.47	1095.84
617.82	1092.56
618.17	1087.18
618.51	1092.33
618.86	1083.90
619.21	1077.11
619.55	1076.18
619.90	1086.71
620.25	1082.73
620.59	1090.69
620.94	1088.12
621.29	1099.82
621.63	1090.46
621.98	1090.92
622.32	1091.39
622.67	1094.20
623.02	1086.94
623.36	1101.46
623.71	1103.33
624.05	1095.37
624.40	1096.07
624.75	1094.43
625.09	1083.90
625.44	1092.33
625.78	1094.67
626.13	1092.56
626.48	1091.39
626.82	1096.54
627.17	1089.75
627.51	1082.73
627.86	1099.12
628.20	1099.12
628.55	1096.31
628.89	1095.60
629.24	1088.58
629.58	1075.71
629.93	1074.77
630.28	1072.67
630.62	1082.26
630.97	1099.58
631.31	1100.75
631.66	1105.20
632.00	1097.95
632.35	1090.46
632.69	1083.67
633.04	1081.33
633.38	1076.88
633.73	1086.01
634.07	1078.05
634.42	1074.54
634.76	1069.39
635.11	1067.28
635.45	1064.48
635.79	1069.62
636.14	1071.26
636.48	1081.80
636.83	1085.31
637.17	1094.20
637.52	1100.99
637.86	1097.95
638.21	1099.35
638.55	1095.60
638.89	1084.60
639.24	1082.26
639.58	1087.18
639.93	1082.03
640.27	1092.56
640.61	1091.86
640.96	1093.73
641.30	1093.73
641.65	1103.80
641.99	1094.43
642.33	1095.60
642.68	1095.37
643.02	1100.52
643.37	1090.22
643.71	1097.01
644.05	1098.41
644.40	1088.82
644.74	1085.31
645.08	1091.16
645.43	1084.37
645.77	1083.43
646.11	1087.18
646.46	1089.52
646.80	1080.63
647.14	1088.12
647.49	1086.01
647.83	1080.39
648.17	1074.31
648.52	1075.01
648.86	1070.33
649.20	1074.54
649.55	1073.60
649.89	1088.35
650.23	1081.56
650.57	1080.86
650.92	1078.52
651.26	1078.75
651.60	1068.22
651.95	1083.90
652.29	1087.41
652.63	1088.82
652.97	1093.50
653.32	1098.65
653.66	1088.82
654.00	1081.33
654.34	1087.41
654.69	1078.52
655.03	1079.92
655.37	1085.54
655.71	1092.33
656.05	1086.24
656.40	1094.67
656.74	1086.48
657.08	1085.07
657.42	1080.39
657.76	1085.54
658.11	1090.69
658.45	1097.48
658.79	1103.09
659.13	1115.50
659.47	1110.12
659.82	1113.16
660.16	1115.73
660.50	1104.50
660.84	1102.16
661.18	1105.67
661.52	1096.07
661.87	1088.82
662.21	1096.78
662.55	1099.35
662.89	1098.65
663.23	1098.41
663.57	1097.48
663.91	1087.41
664.25	1079.92
664.60	1076.41
664.94	1082.73
665.28	1083.20
665.62	1084.37
665.96	1076.18
666.30	1078.99
666.64	1078.52
666.98	1067.99
667.32	1074.54
667.66	1075.01
668.01	1068.69
668.35	1066.11
668.69	1074.31
669.03	1064.94
669.37	1067.99
669.71	1067.75
670.05	1065.41
670.39	1067.75
670.73	1072.67
671.07	1066.35
671.41	1071.03
671.75	1079.46
672.09	1079.69
672.43	1081.80
672.77	1081.33
673.11	1070.80
673.45	1056.52
673.79	1060.96
674.13	1060.73
674.47	1075.48
674.81	1078.75
675.15	1083.20
675.49	1079.46
675.83	1078.99
676.17	1078.05
676.51	1089.75
676.85	1094.20
677.19	1089.05
677.53	1097.01
677.87	1097.01
678.21	1090.92
678.55	1093.03
678.89	1090.69
679.23	1082.03
679.57	1080.39
679.90	1082.97
680.24	1069.39
680.58	1073.84
680.92	1078.05
681.26	1075.01
681.60	1073.14
681.94	1078.28
682.28	1085.54
682.62	1088.82
682.96	1098.88
683.29	1108.01
683.63	1102.39
683.97	1097.95
684.31	1095.84
684.65	1080.16
684.99	1069.86
685.33	1075.24
685.67	1066.82
686.00	1066.82
686.34	1076.88
686.68	1085.31
687.02	1087.41
687.36	1092.09
687.70	1096.31
688.03	1088.58
688.37	1086.71
688.71	1093.26
689.05	1089.29
689.39	1088.12
689.72	1091.63
690.06	1089.99
690.40	1089.99
690.74	1095.60
691.08	1094.20
691.41	1095.84
691.75	1091.39
692.09	1086.94
692.43	1087.41
692.76	1080.63
693.10	1076.18
693.44	1076.41
693.78	1075.01
694.11	1071.73
694.45	1075.48
694.79	1079.46
695.13	1079.46
695.46	1070.33
695.80	1070.80
696.14	1068.69
696.48	1075.48
696.81	1074.31
697.15	1083.90
697.49	1082.26
697.82	1084.60
698.16	1086.01
698.50	1093.97
698.83	1104.97
699.17	1105.20
699.51	1104.73
699.84	1090.22
700.18	1079.69
700.52	1068.92
700.85	1077.58
701.19	1077.58
701.53	1076.88
701.86	1074.77
702.20	1080.39
702.54	1071.50
702.87	1064.94
703.21	1069.62
703.55	1075.71
703.88	1074.31
704.22	1076.65
704.55	1080.16
704.89	1077.82
705.23	1081.56
705.56	1077.35
705.90	1078.75
706.23	1078.99
706.57	1084.60
706.91	1079.69
707.24	1082.97
707.58	1076.41
707.91	1067.52
708.25	1064.71
708.58	1077.35
708.92	1078.28
709.26	1081.56
709.59	1094.43
709.93	1092.33
710.26	1084.60
710.60	1079.92
710.93	1078.05
711.27	1078.99
711.60	1078.99
711.94	1077.11
712.27	1080.16
712.61	1089.29
712.94	1085.54
713.28	1088.58
713.61	1083.43
713.95	1081.80
714.28	1075.94
714.62	1065.65
714.95	1071.26
715.29	1073.60
715.62	1069.39
715.96	1070.80
716.29	1080.16
716.63	1075.48
716.96	1084.84
717.29	1093.73
717.63	1089.99
717.96	1088.35
718.30	1089.75
718.63	1079.46
718.97	1088.82
719.30	1091.63
719.63	1087.41
719.97	1076.88
720.30	1077.82
720.64	1062.14
720.97	1064.48
721.30	1071.97
721.64	1077.82
721.97	1078.75
722.31	1084.60
722.64	1083.20
722.97	1084.37
723.31	1093.97
723.64	1096.31
723.97	1085.31
724.31	1090.69
724.64	1093.73
724.98	1078.28
725.31	1076.65
725.64	1086.01
725.98	1087.65
726.31	1085.54
726.64	1090.92
726.97	1096.78
727.31	1088.12
727.64	1075.71
727.97	1070.09
728.31	1069.86
728.64	1067.05
728.97	1075.01
729.31	1078.05
729.64	1078.05
729.97	1080.86
730.30	1071.50
730.64	1067.05
730.97	1064.01
731.30	1072.67
731.63	1074.77
731.97	1068.45
732.30	1067.75
732.63	1068.45
732.96	1065.88
733.30	1051.60
733.63	1055.58
733.96	1050.67
734.29	1053.71
734.63	1038.50
734.96	1044.58
735.29	1059.33
735.62	1067.05
735.95	1066.58
736.29	1075.01
736.62	1076.88
736.95	1073.14
737.28	1074.54
737.61	1080.86
737.94	1075.48
738.28	1077.11
738.61	1069.16
738.94	1061.43
739.27	1057.45
739.60	1057.22
739.93	1059.56
740.27	1068.45
740.60	1078.52
740.93	1079.92
741.26	1091.39
741.59	1096.54
741.92	1086.48
742.25	1084.60
742.58	1076.18
742.91	1065.18
743.25	1059.79
743.58	1066.82
743.91	1061.20
744.24	1070.33
744.57	1083.90
744.90	1085.31
745.23	1084.84
745.56	1079.46
745.89	1080.16
746.22	1076.18
746.55	1067.52
746.88	1065.18
747.21	1066.11
747.54	1068.92
747.87	1072.90
748.20	1075.01
748.53	1077.11
748.87	1094.20
749.20	1094.90
749.53	1088.12
749.86	1100.05
750.19	1094.20
750.52	1093.50
750.85	1098.18
751.18	1093.73
751.51	1087.88
751.84	1088.35
752.16	1077.35
752.49	1066.11
752.82	1071.03
753.15	1066.11
753.48	1065.65
753.81	1060.96
754.14	1058.16
754.47	1064.24
754.80	1069.39
755.13	1071.97
755.46	1072.20
755.79	1078.05
756.12	1077.58
756.45	1079.69
756.78	1083.43
757.11	1092.33
757.43	1083.67
757.76	1078.75
758.09	1071.97
758.42	1075.71
758.75	1073.60
759.08	1083.20
759.41	1091.39
759.74	1095.37
760.07	1088.35
760.39	1082.97
760.72	1070.56
761.05	1075.01
761.38	1075.94
761.71	1075.94
762.04	1089.52
762.36	1095.37
762.69	1071.50
763.02	1067.75
763.35	1067.52
763.68	1062.37
764.01	1063.54
764.33	1085.07
764.66	1090.46
764.99	1086.71
765.32	1086.24
765.65	1089.99
765.97	1079.22
766.30	1072.67
766.63	1085.77
766.96	1078.28
767.28	1078.28
767.61	1073.37
767.94	1068.45
768.27	1058.39
768.59	1072.90
768.92	1073.37
769.25	1074.31
769.58	1082.03
769.90	1089.99
770.23	1073.60
770.56	1072.20
770.89	1074.31
771.21	1071.50
771.54	1067.28
771.87	1064.48
772.19	1065.88
772.52	1071.97
772.85	1067.28
773.17	1061.90
773.50	1062.60
773.83	1056.05
774.15	1053.94
774.48	1061.67
774.81	1065.18
775.13	1077.11
775.46	1077.35
775.79	1072.43
776.11	1075.71
776.44	1084.84
776.77	1079.92
777.09	1086.24
777.42	1092.09
777.74	1085.77
778.07	1076.41
778.40	1070.56
778.72	1061.20
779.05	1053.71
779.37	1058.16
779.70	1064.71
780.03	1068.92
780.35	1077.35
780.68	1082.97
781.00	1080.39
781.33	1069.39
781.65	1080.16
781.98	1068.69
782.31	1071.73
782.63	1068.45
782.96	1078.99
783.28	1068.69
783.61	1074.77
783.93	1069.62
784.26	1081.33
784.58	1076.18
784.91	1083.90
785.23	1088.35
785.56	1089.05
785.88	1076.41
786.21	1078.52
786.53	1071.73
786.86	1076.41
787.18	1069.39
787.51	1068.22
787.83	1065.65
788.16	1068.45
788.48	1060.50
788.81	1063.31
789.13	1071.26
789.46	1083.43
789.78	1076.18
790.10	1078.99
790.43	1082.73
790.75	1082.50
791.08	1070.09
791.40	1077.82
791.73	1082.50
792.05	1078.75
792.37	1072.90
792.70	1078.99
793.02	1079.92
793.35	1075.48
793.67	1079.22
793.99	1085.54
794.32	1077.11
794.64	1075.01
794.96	1067.75
795.29	1065.88
795.61	1069.62
795.93	1074.07
796.26	1077.58
796.58	1089.99
796.91	1097.24
797.23	1089.99
797.55	1098.88
797.87	1092.09
798.20	1088.58
798.52	1084.14
798.84	1088.12
799.17	1074.54
799.49	1075.94
799.81	1074.54
800.14	1082.26
800.46	1080.86
800.78	1082.50
801.10	1085.77
801.43	1074.77
801.75	1066.11
802.07	1067.75
802.40	1079.92
802.72	1075.94
803.04	1078.52
803.36	1076.65
803.69	1071.26
804.01	1062.84
804.33	1064.94
804.65	1079.69
804.97	1078.52
805.30	1076.18
805.62	1071.03
805.94	1073.60
806.26	1076.65
806.58	1077.82
806.91	1080.39
807.23	1085.31
807.55	1073.14
807.87	1062.84
808.19	1066.82
808.52	1066.82
808.84	1057.69
809.16	1072.90
809.48	1075.01
809.80	1077.58
810.12	1089.29
810.44	1095.14
810.77	1091.39
811.09	1097.24
811.41	1084.84
811.73	1076.18
812.05	1088.58
812.37	1087.18
812.69	1081.09
813.01	1098.65
813.33	1098.41
813.66	1078.28
813.98	1081.80
814.30	1082.50
814.62	1078.52
814.94	1081.09
815.26	1094.20
815.58	1094.43
815.90	1096.31
816.22	1091.63
816.54	1085.77
816.86	1082.73
817.18	1078.05
817.50	1078.05
817.82	1076.65
818.14	1085.77
818.46	1092.33
818.78	1093.50
819.10	1088.12
819.42	1085.07
819.74	1080.63
820.06	1085.77
820.38	1091.86
820.70	1096.54
821.02	1102.39
821.34	1098.18
821.66	1094.20
821.98	1095.14
822.30	1090.46
822.62	1081.33
822.94	1078.28
823.26	1075.24
823.58	1073.14
823.90	1075.24
824.22	1082.26
824.54	1092.80
824.86	1086.94
825.18	1090.22
825.50	1084.14
825.81	1089.52
826.13	1080.86
826.45	1088.58
826.77	1085.07
827.09	1081.80
827.41	1076.65
827.73	1072.67
828.05	1070.09
828.36	1060.03
828.68	1067.75
829.00	1064.48
829.32	1070.80
829.64	1073.14
829.96	1074.77
830.28	1077.58
830.59	1082.50
830.91	1079.92
831.23	1076.65
831.55	1082.97
831.87	1083.43
832.19	1084.84
832.50	1084.84
832.82	1091.86
833.14	1075.24
833.46	1068.69
833.78	1064.24
834.09	1071.50
834.41	1063.31
834.73	1076.41
835.05	1086.24
835.36	1084.60
835.68	1073.14
836.00	1071.26
836.32	1078.99
836.63	1078.05
836.95	1071.73
837.27	1075.01
837.59	1073.14
837.90	1070.09
838.22	1071.03
838.54	1089.29
838.85	1093.97
839.17	1096.07
839.49	1098.65
839.80	1090.69
840.12	1071.03
840.44	1063.77
840.76	1064.48
841.07	1058.39
841.39	1058.39
841.71	1067.05
842.02	1071.73
842.34	1063.54
842.65	1058.16
842.97	1066.11
843.29	1070.56
843.60	1072.20
843.92	1089.99
844.24	1094.43
844.55	1083.20
844.87	1086.24
845.18	1086.01
845.50	1076.65
845.82	1082.03
846.13	1083.43
846.45	1082.26
846.76	1080.63
847.08	1085.31
847.40	1081.09
847.71	1091.63
848.03	1093.26
848.34	1100.05
848.66	1096.54
848.97	1096.54
849.29	1092.09
849.60	1082.03
849.92	1082.26
850.24	1082.97
850.55	1082.73
850.87	1078.99
851.18	1088.58
851.50	1079.46
851.81	1078.75
852.13	1077.35
852.44	1077.11
852.76	1079.69
853.07	1090.69
853.39	1091.86
853.70	1093.97
854.01	1097.24
854.33	1095.14
854.64	1091.39
854.96	1096.07
855.27	1096.07
855.59	1089.52
855.90	1084.14
856.22	1078.75
856.53	1072.90
856.84	1078.99
857.16	1077.58
857.47	1077.35
857.79	1082.97
858.10	1076.41
858.41	1070.56
858.73	1075.01
859.04	1066.11
859.36	1069.16
859.67	1072.67
859.98	1072.90
860.30	1077.82
860.61	1087.65
860.92	1078.28
861.24	1084.60
861.55	1084.84
861.87	1078.05
862.18	1080.63
862.49	1080.86
862.81	1078.52
863.12	1074.31
863.43	1075.71
863.74	1068.22
864.06	1075.24
864.37	1079.22
864.68	1082.03
865.00	1080.16
865.31	1086.94
865.62	1078.05
865.94	1066.35
866.25	1069.62
866.56	1075.94
866.87	1069.62
867.19	1075.48
867.50	1075.71
867.81	1073.84
868.12	1074.77
868.44	1073.60
868.75	1074.07
869.06	1081.09
869.37	1075.48
869.68	1072.20
870.00	1075.24
870.31	1063.77
870.62	1068.69
870.93	1074.07
871.24	1075.01
871.56	1075.24
871.87	1087.65
872.18	1083.67
872.49	1075.01
872.80	1078.75
873.12	1081.33
873.43	1075.71
873.74	1075.71
874.05	1082.26
874.36	1077.35
874.67	1076.65
874.98	1084.60
875.29	1090.46
875.61	1094.90
875.92	1088.82
876.23	1083.20
876.54	1071.97
876.85	1062.37
877.16	1061.90
877.47	1063.31
877.78	1065.65
878.09	1075.71
878.40	1072.67
878.72	1067.75
879.03	1073.14
879.34	1077.58
879.65	1063.54
879.96	1061.90
880.27	1068.45
880.58	1068.69
880.89	1068.45
881.20	1072.67
881.51	1073.37
881.82	1073.14
882.13	1078.52
882.44	1073.84
882.75	1089.75
883.06	1097.71
883.37	1104.03
883.68	1097.71
883.99	1100.99
884.30	1095.37
884.61	1087.18
884.92	1073.60
885.23	1075.48
885.54	1073.84
885.85	1071.73
886.16	1069.39
886.47	1075.94
886.78	1073.14
887.08	1071.97
887.39	1066.35
887.70	1081.56
888.01	1078.28
888.32	1077.82
888.63	1072.67
888.94	1075.48
889.25	1072.67
889.56	1065.65
889.87	1064.94
890.17	1078.05
890.48	1074.31
890.79	1068.92
891.10	1080.39
891.41	1079.69
891.72	1075.71
892.03	1079.46
892.34	1079.22
892.64	1084.84
892.95	1086.24
893.26	1087.18
893.57	1090.92
893.88	1079.69
894.18	1061.67
894.49	1067.75
894.80	1073.14
895.11	1066.58
895.42	1075.71
895.72	1077.58
896.03	1072.67
896.34	1067.52
896.65	1069.39
896.96	1075.94
897.26	1088.12
897.57	1097.24
897.88	1093.03
898.19	1093.50
898.49	1090.92
898.80	1084.14
899.11	1086.24
899.41	1081.09
899.72	1085.07
900.03	1085.31
900.34	1078.05
900.64	1065.41
900.95	1065.41
901.26	1063.77
901.56	1053.71
901.87	1062.84
902.18	1063.54
902.48	1067.52
902.79	1060.96
903.10	1065.18
903.40	1054.88
903.71	1055.35
904.02	1055.58
904.32	1060.26
904.63	1059.33
904.94	1073.84
905.24	1082.03
905.55	1089.75
905.85	1090.92
906.16	1102.16
906.47	1097.95
906.77	1088.35
907.08	1084.84
907.38	1081.80
907.69	1078.52
908.00	1075.71
908.30	1087.65
908.61	1093.26
908.91	1095.14
909.22	1097.01
909.52	1099.58
909.83	1093.50
910.14	1088.35
910.44	1094.43
910.75	1087.18
911.05	1086.01
911.36	1086.71
911.66	1092.56
911.97	1088.82
912.27	1089.52
912.58	1089.05
912.88	1080.16
913.19	1071.73
913.49	1062.37
913.80	1059.09
914.10	1053.24
914.41	1063.07
914.71	1055.11
915.01	1056.28
915.32	1056.05
915.62	1054.65
915.93	1040.60
916.23	1045.05
916.54	1044.35
916.84	1046.45
917.15	1049.73
917.45	1061.67
917.75	1063.54
918.06	1071.73
918.36	1074.07
918.67	1085.54
918.97	1078.99
919.27	1087.88
919.58	1087.88
919.88	1087.65
920.18	1067.28
920.49	1074.54
920.79	1072.67
921.10	1074.54
921.40	1073.14
921.70	1085.54
922.01	1076.65
922.31	1069.16
922.61	1065.88
922.92	1068.45
923.22	1072.43
923.52	1081.56
923.82	1081.09
924.13	1081.80
924.43	1079.92
924.73	1075.01
925.04	1082.50
925.34	1082.97
925.64	1086.48
925.94	1092.80
926.25	1093.50
926.55	1072.43
926.85	1078.52
927.15	1070.80
927.46	1071.26
927.76	1074.07
928.06	1082.26
928.36	1077.82
928.67	1079.92
928.97	1070.56
929.27	1073.60
929.57	1075.71
929.87	1078.52
930.18	1072.67
930.48	1080.63
930.78	1070.09
931.08	1077.58
931.38	1073.84
931.69	1077.58
931.99	1079.69
932.29	1086.24
932.59	1083.67
932.89	1081.09
933.19	1090.46
933.49	1080.39
933.80	1090.46
934.10	1084.37
934.40	1097.24
934.70	1093.03
935.00	1109.65
935.30	1089.75
935.60	1090.22
935.90	1086.24
936.20	1084.37
936.50	1073.14
936.81	1085.31
937.11	1086.24
937.41	1081.33
937.71	1077.58
938.01	1082.73
938.31	1086.94
938.61	1090.22
938.91	1097.95
939.21	1107.78
939.51	1102.63
939.81	1100.05
940.11	1091.63
940.41	1094.43
940.71	1093.03
941.01	1099.12
941.31	1100.29
941.61	1119.95
941.91	1115.03
942.21	1116.67
942.51	1112.46
942.81	1101.22
943.11	1083.43
943.41	1069.62
943.71	1058.86
944.01	1056.05
944.31	1060.03
944.61	1060.50
944.90	1069.16
945.20	1068.92
945.50	1071.03
945.80	1075.24
946.10	1080.86
946.40	1074.77
946.70	1074.31
947.00	1077.11
947.30	1066.58
947.60	1060.50
947.89	1065.65
948.19	1074.77
948.49	1077.82
948.79	1093.73
949.09	1095.37
949.39	1100.99
949.69	1105.90
949.98	1106.84
950.28	1104.73
950.58	1094.90
950.88	1087.41
951.18	1085.31
951.48	1072.90
951.77	1063.07
952.07	1074.54
952.37	1079.46
952.67	1071.03
952.97	1071.97
953.26	1083.20
953.56	1089.99
953.86	1096.54
954.16	1101.92
954.45	1110.58
954.75	1103.80
955.05	1100.75
955.35	1095.14
955.64	1086.94
955.94	1081.09
956.24	1077.11
956.54	1073.14
956.83	1076.41
957.13	1076.88
957.43	1079.22
957.72	1078.28
958.02	1078.05
958.32	1075.24
958.61	1086.24
958.91	1086.24
959.21	1102.63
959.50	1107.78
959.80	1097.01
960.10	1101.46
960.39	1099.12
960.69	1096.31
960.99	1099.82
961.28	1107.07
961.58	1096.31
961.87	1095.37
962.17	1087.65
962.47	1085.31
962.76	1087.41
963.06	1091.63
963.36	1098.18
963.65	1094.43
963.95	1084.84
964.24	1080.63
964.54	1075.71
964.83	1074.77
965.13	1074.31
965.42	1082.26
965.72	1085.77
966.02	1082.73
966.31	1082.50
966.61	1080.16
966.90	1076.88
967.20	1077.58
967.49	1087.41
967.79	1081.80
968.08	1077.35
968.38	1081.80
968.67	1076.41
968.97	1075.01
969.26	1080.63
969.56	1086.01
969.85	1075.71
970.15	1076.18
970.44	1064.24
970.74	1062.14
971.03	1074.54
971.32	1078.05
971.62	1078.28
971.91	1084.37
972.21	1089.29
972.50	1076.41
972.80	1078.52
973.09	1081.80
973.38	1087.41
973.68	1087.65
973.97	1095.14
974.27	1098.41
974.56	1102.39
974.85	1114.10
975.15	1112.22
975.44	1108.01
975.73	1107.78
976.03	1108.01
976.32	1100.75
976.61	1104.26
976.91	1105.44
977.20	1101.22
977.49	1100.99
977.79	1092.33
978.08	1084.84
978.37	1091.16
978.67	1082.97
978.96	1080.63
979.25	1077.82
979.55	1075.24
979.84	1072.67
980.13	1087.41
980.42	1084.84
980.72	1089.05
981.01	1103.33
981.30	1100.75
981.59	1095.37
981.89	1098.41
982.18	1100.29
982.47	1089.29
982.76	1087.88
983.06	1085.77
983.35	1093.50
983.64	1101.22
983.93	1109.65
984.22	1107.31
984.52	1103.80
984.81	1093.26
985.10	1088.12
985.39	1082.97
985.68	1085.31
985.97	1091.16
986.27	1093.26
986.56	1087.41
986.85	1090.46
987.14	1092.33
987.43	1086.71
987.72	1088.12
988.01	1089.05
988.31	1074.07
988.60	1066.82
988.89	1078.05
989.18	1070.33
989.47	1062.60
989.76	1063.07
990.05	1067.52
990.34	1056.75
990.63	1057.69
990.92	1062.37
991.21	1062.37
991.51	1054.65
991.80	1063.77
992.09	1063.31
992.38	1069.86
992.67	1076.88
992.96	1091.86
993.25	1089.52
993.54	1092.56
993.83	1080.86
994.12	1081.80
994.41	1079.22
994.70	1070.80
994.99	1075.48
995.28	1089.75
995.57	1086.48
995.86	1079.46
996.15	1090.22
996.44	1085.31
996.73	1079.46
997.02	1086.94
997.31	1081.56
997.59	1074.77
997.88	1071.73
998.17	1071.97
998.46	1065.65
998.75	1076.41
999.04	1082.03
999.33	1082.97
999.62	1081.33
999.91	1081.09
1000.20	1079.22
1000.49	1075.94
1000.77	1084.84
1001.06	1081.09
1001.35	1078.75
1001.64	1079.22
1001.93	1078.99
1002.22	1063.54
1002.51	1069.39
1002.79	1074.77
1003.08	1075.24
1003.37	1077.58
1003.66	1097.24
1003.95	1093.26
1004.23	1085.77
1004.52	1084.84
1004.81	1081.09
1005.10	1074.54
1005.39	1076.65
1005.67	1085.77
1005.96	1089.75
1006.25	1099.12
1006.54	1088.12
1006.83	1100.29
1007.11	1095.14
1007.40	1089.29
1007.69	1080.63
1007.97	1089.99
1008.26	1078.05
1008.55	1076.41
1008.84	1079.46
1009.12	1075.71
1009.41	1075.01
1009.70	1069.86
1009.98	1066.58
1010.27	1060.26
1010.56	1066.82
1010.85	1062.60
1011.13	1077.82
1011.42	1082.03
1011.71	1087.88
1011.99	1092.56
1012.28	1099.35
1012.56	1093.03
1012.85	1094.20
1013.14	1095.14
1013.42	1084.84
1013.71	1080.16
1014.00	1077.35
1014.28	1068.22
1014.57	1059.79
1014.85	1060.96
1015.14	1055.35
1015.43	1044.11
1015.71	1052.30
1016.00	1050.67
1016.28	1056.75
1016.57	1061.67
1016.85	1070.80
1017.14	1079.92
1017.43	1088.12
1017.71	1094.20
1018.00	1092.80
1018.28	1081.80
1018.57	1071.03
1018.85	1063.07
1019.14	1050.20
1019.42	1056.52
1019.71	1062.14
1019.99	1055.11
1020.28	1061.20
1020.56	1053.48
1020.85	1054.18
1021.13	1061.43
1021.42	1074.31
1021.70	1077.82
1021.99	1090.92
1022.27	1084.37
1022.55	1091.86
1022.84	1063.77
>>>>>End Processed Spectral Data<<<<<
