SpectraSuite Data File
++++++++++++++++++++++++++++++++++++
Date: Mon Aug 26 10:24:47 PDT 2019
User: corrico
Dark Spectrum Present: No
Reference Spectrum Present: No
Number of Sampled Component Spectra: 1
Spectrometers: USB2+H06089
Integration Time (usec): 10000 (USB2+H06089)
Spectra Averaged: 2 (USB2+H06089)
Boxcar Smoothing: 2 (USB2+H06089)
Correct for Electrical Dark: No (USB2+H06089)
Strobe/Lamp Enabled: No (USB2+H06089)
Correct for Detector Non-linearity: No (USB2+H06089)
Correct for Stray Light: No (USB2+H06089)
Number of Pixels in Processed Spectrum: 2048
>>>>>Begin Processed Spectral Data<<<<<
339.70	1032.18
340.07	1032.18
340.45	982.09
340.82	964.77
341.19	935.75
341.57	914.45
341.94	904.15
342.31	914.68
342.69	908.36
343.06	913.28
343.43	901.57
343.81	892.68
344.18	890.11
344.55	891.98
344.93	903.68
345.30	924.51
345.67	941.83
346.04	940.90
346.42	946.98
346.79	947.92
347.16	952.60
347.54	970.15
347.91	993.56
348.28	1005.73
348.65	1013.22
349.03	1018.84
349.40	1023.05
349.77	1027.03
350.14	1038.50
350.52	1053.01
350.89	1063.07
351.26	1060.73
351.63	1067.05
352.01	1067.05
352.38	1060.73
352.75	1062.14
353.12	1074.07
353.50	1079.46
353.87	1084.84
354.24	1098.41
354.61	1094.20
354.98	1092.56
355.36	1097.95
355.73	1094.67
356.10	1088.35
356.47	1101.22
356.84	1110.58
357.22	1117.61
357.59	1122.05
357.96	1113.86
358.33	1104.03
358.70	1096.07
359.08	1093.26
359.45	1093.73
359.82	1102.39
360.19	1107.31
360.56	1100.99
360.94	1093.97
361.31	1091.63
361.68	1085.54
362.05	1088.82
362.42	1090.22
362.79	1095.37
363.16	1090.22
363.54	1096.54
363.91	1099.58
364.28	1106.84
364.65	1096.54
365.02	1097.48
365.39	1093.50
365.76	1084.14
366.14	1080.16
366.51	1085.07
366.88	1090.22
367.25	1097.95
367.62	1104.73
367.99	1103.33
368.36	1097.01
368.73	1090.69
369.10	1089.05
369.48	1088.82
369.85	1099.82
370.22	1109.88
370.59	1115.73
370.96	1119.01
371.33	1115.03
371.70	1106.84
372.07	1109.41
372.44	1108.24
372.81	1092.80
373.18	1089.52
373.55	1077.82
373.93	1069.62
374.30	1070.09
374.67	1075.94
375.04	1073.84
375.41	1083.43
375.78	1090.69
376.15	1080.86
376.52	1087.41
376.89	1096.31
377.26	1090.69
377.63	1082.03
378.00	1089.05
378.37	1083.67
378.74	1077.58
379.11	1087.65
379.48	1089.75
379.85	1092.09
380.22	1093.97
380.59	1097.48
380.96	1094.67
381.33	1091.86
381.70	1087.88
382.07	1093.50
382.44	1088.12
382.81	1093.26
383.18	1103.09
383.55	1111.99
383.92	1115.03
384.29	1115.50
384.66	1121.12
385.03	1119.24
385.40	1119.71
385.77	1109.18
386.14	1104.03
386.51	1094.90
386.88	1102.86
387.25	1109.41
387.62	1113.16
387.99	1126.73
388.36	1128.37
388.73	1120.88
389.10	1112.92
389.46	1111.05
389.83	1113.86
390.20	1115.27
390.57	1108.48
390.94	1107.31
391.31	1099.35
391.68	1091.63
392.05	1090.92
392.42	1094.67
392.79	1097.71
393.16	1108.24
393.53	1118.54
393.89	1117.61
394.26	1116.67
394.63	1115.03
395.00	1118.54
395.37	1112.69
395.74	1112.22
396.11	1114.56
396.48	1113.63
396.84	1107.54
397.21	1108.01
397.58	1117.14
397.95	1121.58
398.32	1127.90
398.69	1131.65
399.06	1143.82
399.42	1144.05
399.79	1142.42
400.16	1138.67
400.53	1152.01
400.90	1136.80
401.27	1126.97
401.64	1133.99
402.00	1147.56
402.37	1149.44
402.74	1164.18
403.11	1184.78
403.48	1192.50
403.84	1197.18
404.21	1199.52
404.58	1210.06
404.95	1204.91
405.32	1210.06
405.68	1223.16
406.05	1237.91
406.42	1240.25
406.79	1262.02
407.16	1274.66
407.52	1281.21
407.89	1292.21
408.26	1313.51
408.63	1327.55
408.99	1352.60
409.36	1373.66
409.73	1405.96
410.10	1429.37
410.47	1457.69
410.83	1488.81
411.20	1522.28
411.57	1555.99
411.94	1605.61
412.30	1655.46
412.67	1693.61
413.04	1736.21
413.40	1780.68
413.77	1825.62
414.14	1878.98
414.51	1939.37
414.87	2012.39
415.24	2089.16
415.61	2166.40
415.97	2242.00
416.34	2339.37
416.71	2426.20
417.08	2524.74
417.44	2628.19
417.81	2740.77
418.18	2864.58
418.54	2990.97
418.91	3126.96
419.28	3276.28
419.64	3425.84
420.01	3582.42
420.38	3745.33
420.74	3891.14
421.11	4064.34
421.48	4251.82
421.84	4444.21
422.21	4660.24
422.58	4912.08
422.94	5164.39
423.31	5454.15
423.68	5721.44
424.04	6001.60
424.41	6270.76
424.77	6552.56
425.14	6822.66
425.51	7138.63
425.87	7504.23
426.24	7842.43
426.61	8282.69
426.97	8791.29
427.34	9246.99
427.70	9722.12
428.07	10210.35
428.44	10655.52
428.80	11077.52
429.17	11606.01
429.53	12077.87
429.90	12717.07
430.27	13242.05
430.63	13802.61
431.00	14353.34
431.36	15055.50
431.73	15604.12
432.09	16263.45
432.46	16864.96
432.83	17532.02
433.19	18091.64
433.56	18801.52
433.92	19478.41
434.29	20181.50
434.65	20855.11
435.02	21479.56
435.38	22028.42
435.75	22492.08
436.11	23069.72
436.48	23473.47
436.84	23950.94
437.21	24392.83
437.57	24883.87
437.94	25209.68
438.30	25597.97
438.67	25822.43
439.03	25948.35
439.40	26086.91
439.76	26032.84
440.13	25919.56
440.49	25878.37
440.86	25711.02
441.22	25392.24
441.59	25099.67
441.95	24791.89
442.32	24299.44
442.68	23917.23
443.05	23391.55
443.41	22861.42
443.78	22224.79
444.14	21691.38
444.51	21007.71
444.87	20648.44
445.24	20134.46
445.60	19714.80
445.96	19163.60
446.33	18742.31
446.69	18050.91
447.06	17583.27
447.42	16993.69
447.79	16483.92
448.15	16033.37
448.51	15663.10
448.88	15270.36
449.24	14938.47
449.61	14661.12
449.97	14313.08
450.33	13981.66
450.70	13572.30
451.06	13232.69
451.43	12802.50
451.79	12428.01
452.15	12066.63
452.52	11772.19
452.88	11503.97
453.24	11284.89
453.61	11061.37
453.97	10780.04
454.34	10515.09
454.70	10196.78
455.06	9936.51
455.43	9600.88
455.79	9279.05
456.15	8974.55
456.52	8661.62
456.88	8392.22
457.24	8123.53
457.61	7933.71
457.97	7731.96
458.33	7516.63
458.70	7274.62
459.06	7043.37
459.42	6814.70
459.79	6570.59
460.15	6399.26
460.51	6182.29
460.88	6030.16
461.24	5848.30
461.60	5699.91
461.96	5523.66
462.33	5390.96
462.69	5232.74
463.05	5101.90
463.42	4979.72
463.78	4865.27
464.14	4739.12
464.50	4619.98
464.87	4489.85
465.23	4373.99
465.59	4274.75
465.95	4163.81
466.32	4054.51
466.68	3981.49
467.04	3885.76
467.40	3791.20
467.77	3717.00
468.13	3653.34
468.49	3567.68
468.85	3512.21
469.22	3456.50
469.58	3382.78
469.94	3328.01
470.30	3277.45
470.66	3200.45
471.03	3133.51
471.39	3096.06
471.75	3034.04
472.11	2976.93
472.47	2932.69
472.84	2897.12
473.20	2831.35
473.56	2791.09
473.92	2752.47
474.28	2714.32
474.65	2650.42
475.01	2620.70
475.37	2568.74
475.73	2517.25
476.09	2481.44
476.45	2468.56
476.81	2431.35
477.18	2394.37
477.54	2363.47
477.90	2330.24
478.26	2300.51
478.62	2260.49
478.98	2228.89
479.34	2202.68
479.71	2186.29
480.07	2154.23
480.43	2123.33
480.79	2109.52
481.15	2087.99
481.51	2038.14
481.87	2011.22
482.23	1998.35
482.59	1984.77
482.96	1962.07
483.32	1952.01
483.68	1929.07
484.04	1919.94
484.40	1891.86
484.76	1875.71
485.12	1864.24
485.48	1838.49
485.84	1810.64
486.20	1795.89
486.56	1778.81
486.92	1762.89
487.28	1753.30
487.64	1743.70
488.00	1716.78
488.37	1695.48
488.73	1658.50
489.09	1649.84
489.45	1622.23
489.81	1598.59
490.17	1587.35
490.53	1596.71
490.89	1577.76
491.25	1575.65
491.61	1581.97
491.97	1567.22
492.33	1557.39
492.69	1534.92
493.05	1523.22
493.41	1507.77
493.77	1497.01
494.13	1479.45
494.49	1468.22
494.85	1459.79
495.21	1443.17
495.57	1430.07
495.93	1416.26
496.29	1413.68
496.64	1399.17
497.00	1387.94
497.36	1388.64
497.72	1381.15
498.08	1373.43
498.44	1364.53
498.80	1363.83
499.16	1352.13
499.52	1333.64
499.88	1328.96
500.24	1327.32
500.60	1317.49
500.96	1310.93
501.32	1321.23
501.68	1315.38
502.03	1304.61
502.39	1308.83
502.75	1305.55
503.11	1286.59
503.47	1275.83
503.83	1264.36
504.19	1260.61
504.55	1260.38
504.91	1259.68
505.26	1265.76
505.62	1272.78
505.98	1257.57
506.34	1245.63
506.70	1255.93
507.06	1235.57
507.42	1224.33
507.78	1218.72
508.13	1221.53
508.49	1204.91
508.85	1213.57
509.21	1214.04
509.57	1217.31
509.93	1203.04
510.28	1199.99
510.64	1193.44
511.00	1194.84
511.36	1189.23
511.72	1186.89
512.07	1194.14
512.43	1192.74
512.79	1186.89
513.15	1185.01
513.51	1179.86
513.86	1170.74
514.22	1164.88
514.58	1158.80
514.94	1149.20
515.30	1157.39
515.65	1162.54
516.01	1156.69
516.37	1149.67
516.73	1160.20
517.08	1155.52
517.44	1147.33
517.80	1146.16
518.16	1153.18
518.51	1151.08
518.87	1151.31
519.23	1142.88
519.59	1153.88
519.94	1153.18
520.30	1150.61
520.66	1152.01
521.01	1162.08
521.37	1152.25
521.73	1149.44
522.09	1136.80
522.44	1137.50
522.80	1147.10
523.16	1147.80
523.51	1145.46
523.87	1157.16
524.23	1148.50
524.58	1137.97
524.94	1138.90
525.30	1139.14
525.65	1131.18
526.01	1132.12
526.37	1128.37
526.72	1120.65
527.08	1118.07
527.44	1111.29
527.79	1112.92
528.15	1112.22
528.51	1120.65
528.86	1125.80
529.22	1133.29
529.58	1124.86
529.93	1125.80
530.29	1131.18
530.65	1118.07
531.00	1119.71
531.36	1121.35
531.71	1112.22
532.07	1105.90
532.43	1116.44
532.78	1121.12
533.14	1111.52
533.49	1114.80
533.85	1121.82
534.21	1115.50
534.56	1111.05
534.92	1134.46
535.27	1137.03
535.63	1132.12
535.98	1128.14
536.34	1128.61
536.69	1105.20
537.05	1092.56
537.41	1083.43
537.76	1090.22
538.12	1092.09
538.47	1100.75
538.83	1104.50
539.18	1105.90
539.54	1105.44
539.89	1095.60
540.25	1098.41
540.60	1109.41
540.96	1106.14
541.31	1104.26
541.67	1107.31
542.02	1097.95
542.38	1083.67
542.73	1089.99
543.09	1092.09
543.44	1093.26
543.80	1103.09
544.15	1115.03
544.51	1111.99
544.86	1109.18
545.22	1110.12
545.57	1109.65
545.93	1103.80
546.28	1098.41
546.64	1100.29
546.99	1100.05
547.35	1096.54
547.70	1089.75
548.05	1088.58
548.41	1088.35
548.76	1088.58
549.12	1082.03
549.47	1080.63
549.83	1082.73
550.18	1083.67
550.53	1086.01
550.89	1091.63
551.24	1101.22
551.60	1112.46
551.95	1103.80
552.30	1106.14
552.66	1112.46
553.01	1117.37
553.37	1110.58
553.72	1115.73
554.07	1110.12
554.43	1099.82
554.78	1097.24
555.13	1105.44
555.49	1108.01
555.84	1108.71
556.19	1124.16
556.55	1121.12
556.90	1106.61
557.26	1108.24
557.61	1102.86
557.96	1096.54
558.32	1111.99
558.67	1125.33
559.02	1133.29
559.37	1128.14
559.73	1119.01
560.08	1105.20
560.43	1104.73
560.79	1097.95
561.14	1105.20
561.49	1106.14
561.85	1106.84
562.20	1097.01
562.55	1091.16
562.90	1090.22
563.26	1101.22
563.61	1100.05
563.96	1109.18
564.32	1107.07
564.67	1107.31
565.02	1102.86
565.37	1095.84
565.73	1085.07
566.08	1085.31
566.43	1089.99
566.78	1089.99
567.14	1092.56
567.49	1084.60
567.84	1086.48
568.19	1084.37
568.54	1075.48
568.90	1081.56
569.25	1100.99
569.60	1111.75
569.95	1114.10
570.31	1126.27
570.66	1121.58
571.01	1114.56
571.36	1108.01
571.71	1108.71
572.06	1105.90
572.42	1119.95
572.77	1114.10
573.12	1111.52
573.47	1105.90
573.82	1108.95
574.18	1102.63
574.53	1103.33
574.88	1099.12
575.23	1101.22
575.58	1097.95
575.93	1097.48
576.28	1103.80
576.64	1109.65
576.99	1107.07
577.34	1104.73
577.69	1108.24
578.04	1107.31
578.39	1098.18
578.74	1098.18
579.09	1094.43
579.44	1084.84
579.80	1082.03
580.15	1080.16
580.50	1082.73
580.85	1090.69
581.20	1094.20
581.55	1092.80
581.90	1104.97
582.25	1103.56
582.60	1105.20
582.95	1109.88
583.30	1118.78
583.65	1111.99
584.00	1109.18
584.35	1101.46
584.71	1095.60
585.06	1085.31
585.41	1090.46
585.76	1092.09
586.11	1092.09
586.46	1087.18
586.81	1094.43
587.16	1091.86
587.51	1100.52
587.86	1100.05
588.21	1103.80
588.56	1101.92
588.91	1099.58
589.26	1091.86
589.61	1089.75
589.96	1089.29
590.31	1085.31
590.66	1087.88
591.01	1080.39
591.36	1089.05
591.71	1099.12
592.06	1102.39
592.41	1100.75
592.76	1104.26
593.10	1104.26
593.45	1095.84
593.80	1104.73
594.15	1099.12
594.50	1099.82
594.85	1100.05
595.20	1102.86
595.55	1090.22
595.90	1103.33
596.25	1104.03
596.60	1108.24
596.95	1101.69
597.30	1110.82
597.64	1153.88
597.99	1160.67
598.34	1144.05
598.69	1143.82
599.04	1143.82
599.39	1097.24
599.74	1096.31
600.09	1099.12
600.44	1104.73
600.78	1102.39
601.13	1097.01
601.48	1086.48
601.83	1081.09
602.18	1076.18
602.53	1059.79
602.88	1062.60
603.22	1071.50
603.57	1077.35
603.92	1080.86
604.27	1086.48
604.62	1093.97
604.97	1092.56
605.31	1097.71
605.66	1095.37
606.01	1107.54
606.36	1100.05
606.71	1097.48
607.05	1089.75
607.40	1094.90
607.75	1084.37
608.10	1078.75
608.44	1087.65
608.79	1090.92
609.14	1088.35
609.49	1096.07
609.84	1092.09
610.18	1083.20
610.53	1085.07
610.88	1085.77
611.23	1082.50
611.57	1087.65
611.92	1083.67
612.27	1088.58
612.62	1092.33
612.96	1096.78
613.31	1098.18
613.66	1099.12
614.00	1101.46
614.35	1097.95
614.70	1093.97
615.05	1089.29
615.39	1098.18
615.74	1090.46
616.09	1085.77
616.43	1088.12
616.78	1103.56
617.13	1095.14
617.47	1094.90
617.82	1093.26
618.17	1085.54
618.51	1074.77
618.86	1077.82
619.21	1079.92
619.55	1086.01
619.90	1089.75
620.25	1092.09
620.59	1093.97
620.94	1092.56
621.29	1092.56
621.63	1088.12
621.98	1089.05
622.32	1090.92
622.67	1091.39
623.02	1090.22
623.36	1094.90
623.71	1095.14
624.05	1101.92
624.40	1104.26
624.75	1104.26
625.09	1101.92
625.44	1101.69
625.78	1094.20
626.13	1095.84
626.48	1089.29
626.82	1085.77
627.17	1086.48
627.51	1089.99
627.86	1093.03
628.20	1092.33
628.55	1099.12
628.89	1084.14
629.24	1062.14
629.58	1051.37
629.93	1058.62
630.28	1062.14
630.62	1076.65
630.97	1098.65
631.31	1105.90
631.66	1103.56
632.00	1091.16
632.35	1090.69
632.69	1078.99
633.04	1078.52
633.38	1079.92
633.73	1091.16
634.07	1090.69
634.42	1093.50
634.76	1088.82
635.11	1092.09
635.45	1088.12
635.79	1086.94
636.14	1100.29
636.48	1093.73
636.83	1087.65
637.17	1088.82
637.52	1084.37
637.86	1072.90
638.21	1081.80
638.55	1087.18
638.89	1088.82
639.24	1092.80
639.58	1090.22
639.93	1094.43
640.27	1093.26
640.61	1103.80
640.96	1105.44
641.30	1113.86
641.65	1109.18
641.99	1112.69
642.33	1108.71
642.68	1100.52
643.02	1091.86
643.37	1086.01
643.71	1081.80
644.05	1065.41
644.40	1077.11
644.74	1083.67
645.08	1083.43
645.43	1086.01
645.77	1094.67
646.11	1089.99
646.46	1093.97
646.80	1097.71
647.14	1087.65
647.49	1089.52
647.83	1079.92
648.17	1075.71
648.52	1078.05
648.86	1080.39
649.20	1077.82
649.55	1087.65
649.89	1096.07
650.23	1096.54
650.57	1098.65
650.92	1094.67
651.26	1104.26
651.60	1100.99
651.95	1097.01
652.29	1095.14
652.63	1097.71
652.97	1085.07
653.32	1078.99
653.66	1091.63
654.00	1088.35
654.34	1086.01
654.69	1098.18
655.03	1093.50
655.37	1081.80
655.71	1088.12
656.05	1092.33
656.40	1084.60
656.74	1089.05
657.08	1093.97
657.42	1093.97
657.76	1100.29
658.11	1099.35
658.45	1099.35
658.79	1087.41
659.13	1083.67
659.47	1076.41
659.82	1086.48
660.16	1095.14
660.50	1095.60
660.84	1105.44
661.18	1094.43
661.52	1077.82
661.87	1073.14
662.21	1078.05
662.55	1073.84
662.89	1078.05
663.23	1082.73
663.57	1077.35
663.91	1079.46
664.25	1076.41
664.60	1085.77
664.94	1087.88
665.28	1084.37
665.62	1090.46
665.96	1090.69
666.30	1095.84
666.64	1097.95
666.98	1100.75
667.32	1104.26
667.66	1105.20
668.01	1091.63
668.35	1093.03
668.69	1089.05
669.03	1081.80
669.37	1075.94
669.71	1080.16
670.05	1079.69
670.39	1085.31
670.73	1079.69
671.07	1096.07
671.41	1100.52
671.75	1097.01
672.09	1094.67
672.43	1099.35
672.77	1088.58
673.11	1082.73
673.45	1086.94
673.79	1100.29
674.13	1092.09
674.47	1093.97
674.81	1097.48
675.15	1081.80
675.49	1067.52
675.83	1068.45
676.17	1061.90
676.51	1059.33
676.85	1066.35
677.19	1068.22
677.53	1077.11
677.87	1084.37
678.21	1081.56
678.55	1082.26
678.89	1077.82
679.23	1060.96
679.57	1060.96
679.90	1067.75
680.24	1069.62
680.58	1080.86
680.92	1105.20
681.26	1101.69
681.60	1108.71
681.94	1112.69
682.28	1099.82
682.62	1088.35
682.96	1085.77
683.29	1073.60
683.63	1072.43
683.97	1074.54
684.31	1071.26
684.65	1074.77
684.99	1076.88
685.33	1079.92
685.67	1086.24
686.00	1090.69
686.34	1089.05
686.68	1093.97
687.02	1088.82
687.36	1085.31
687.70	1083.67
688.03	1085.07
688.37	1078.99
688.71	1081.09
689.05	1078.99
689.39	1082.03
689.72	1075.94
690.06	1070.80
690.40	1076.65
690.74	1071.97
691.08	1064.24
691.41	1073.84
691.75	1085.31
692.09	1072.67
692.43	1081.56
692.76	1082.50
693.10	1075.71
693.44	1064.01
693.78	1074.77
694.11	1068.92
694.45	1078.05
694.79	1085.07
695.13	1091.86
695.46	1085.54
695.80	1084.84
696.14	1086.94
696.48	1082.97
696.81	1086.48
697.15	1081.33
697.49	1090.22
697.82	1090.22
698.16	1097.01
698.50	1088.12
698.83	1096.31
699.17	1091.16
699.51	1080.63
699.84	1067.99
700.18	1074.07
700.52	1072.43
700.85	1078.52
701.19	1083.20
701.53	1094.43
701.86	1096.31
702.20	1088.35
702.54	1081.33
702.87	1078.05
703.21	1063.07
703.55	1063.07
703.88	1066.11
704.22	1064.01
704.55	1072.20
704.89	1092.80
705.23	1085.07
705.56	1093.73
705.90	1093.26
706.23	1092.56
706.57	1082.50
706.91	1080.86
707.24	1075.24
707.58	1090.22
707.91	1083.20
708.25	1085.31
708.58	1092.56
708.92	1095.84
709.26	1085.54
709.59	1087.65
709.93	1086.94
710.26	1093.03
710.60	1081.09
710.93	1086.01
711.27	1083.90
711.60	1081.09
711.94	1064.48
712.27	1071.03
712.61	1074.07
712.94	1077.35
713.28	1078.52
713.61	1092.33
713.95	1097.01
714.28	1088.12
714.62	1092.56
714.95	1095.14
715.29	1095.37
715.62	1102.63
715.96	1098.65
716.29	1101.46
716.63	1100.29
716.96	1095.84
717.29	1084.84
717.63	1088.35
717.96	1078.05
718.30	1081.33
718.63	1080.86
718.97	1075.01
719.30	1076.65
719.63	1079.46
719.97	1075.24
720.30	1067.28
720.64	1072.20
720.97	1066.35
721.30	1057.22
721.64	1052.54
721.97	1067.52
722.31	1080.86
722.64	1088.82
722.97	1097.48
723.31	1102.39
723.64	1097.24
723.97	1079.69
724.31	1072.90
724.64	1072.43
724.98	1071.03
725.31	1070.33
725.64	1078.05
725.98	1086.94
726.31	1090.46
726.64	1096.07
726.97	1093.50
727.31	1090.69
727.64	1081.56
727.97	1065.88
728.31	1067.75
728.64	1081.33
728.97	1077.58
729.31	1084.60
729.64	1099.58
729.97	1091.63
730.30	1076.65
730.64	1076.88
730.97	1069.16
731.30	1068.45
731.63	1063.07
731.97	1070.56
732.30	1074.77
732.63	1077.58
732.96	1078.75
733.30	1081.56
733.63	1072.67
733.96	1072.20
734.29	1078.99
734.63	1068.92
734.96	1071.73
735.29	1074.54
735.62	1080.39
735.95	1073.60
736.29	1082.50
736.62	1084.14
736.95	1091.16
737.28	1084.14
737.61	1076.41
737.94	1073.14
738.28	1070.09
738.61	1063.77
738.94	1062.14
739.27	1072.90
739.60	1079.92
739.93	1075.94
740.27	1077.11
740.60	1094.20
740.93	1100.52
741.26	1097.71
741.59	1097.71
741.92	1096.78
742.25	1077.58
742.58	1068.45
742.91	1064.01
743.25	1065.18
743.58	1059.56
743.91	1065.65
744.24	1068.22
744.57	1064.01
744.90	1068.22
745.23	1070.80
745.56	1064.48
745.89	1074.31
746.22	1086.48
746.55	1083.90
746.88	1090.46
747.21	1095.60
747.54	1075.94
747.87	1071.73
748.20	1081.09
748.53	1089.52
748.87	1086.48
749.20	1079.92
749.53	1078.28
749.86	1072.90
750.19	1068.69
750.52	1070.09
750.85	1093.26
751.18	1095.37
751.51	1092.09
751.84	1082.03
752.16	1092.80
752.49	1085.54
752.82	1082.73
753.15	1076.65
753.48	1087.65
753.81	1077.58
754.14	1084.14
754.47	1087.65
754.80	1082.97
755.13	1076.41
755.46	1074.31
755.79	1069.62
756.12	1079.46
756.45	1089.99
756.78	1085.54
757.11	1095.37
757.43	1101.46
757.76	1085.07
758.09	1088.35
758.42	1095.14
758.75	1082.50
759.08	1078.99
759.41	1082.50
759.74	1079.92
760.07	1077.11
760.39	1087.65
760.72	1086.94
761.05	1082.03
761.38	1076.18
761.71	1076.41
762.04	1073.84
762.36	1063.31
762.69	1061.20
763.02	1065.65
763.35	1065.65
763.68	1072.90
764.01	1080.39
764.33	1087.65
764.66	1090.69
764.99	1093.50
765.32	1094.20
765.65	1094.43
765.97	1085.07
766.30	1092.56
766.63	1083.90
766.96	1073.84
767.28	1074.07
767.61	1076.88
767.94	1065.65
768.27	1081.33
768.59	1065.18
768.92	1070.33
769.25	1075.48
769.58	1079.22
769.90	1071.03
770.23	1080.63
770.56	1075.71
770.89	1078.99
771.21	1078.99
771.54	1076.65
771.87	1090.46
772.19	1100.29
772.52	1094.67
772.85	1094.20
773.17	1095.14
773.50	1083.90
773.83	1080.16
774.15	1087.18
774.48	1088.35
774.81	1086.48
775.13	1097.48
775.46	1085.77
775.79	1079.69
776.11	1088.58
776.44	1091.39
776.77	1078.05
777.09	1085.31
777.42	1086.71
777.74	1066.35
778.07	1062.37
778.40	1070.33
778.72	1074.54
779.05	1079.69
779.37	1091.16
779.70	1094.20
780.03	1094.20
780.35	1078.52
780.68	1063.54
781.00	1065.88
781.33	1067.99
781.65	1062.37
781.98	1070.09
782.31	1080.16
782.63	1082.73
782.96	1075.71
783.28	1088.12
783.61	1086.48
783.93	1093.26
784.26	1088.35
784.58	1088.58
784.91	1077.58
785.23	1075.71
785.56	1064.94
785.88	1061.90
786.21	1065.88
786.53	1065.41
786.86	1068.69
787.18	1077.35
787.51	1082.73
787.83	1079.22
788.16	1081.80
788.48	1091.16
788.81	1098.65
789.13	1094.90
789.46	1104.50
789.78	1113.63
790.10	1112.69
790.43	1090.22
790.75	1083.90
791.08	1072.43
791.40	1064.71
791.73	1059.33
792.05	1068.22
792.37	1072.43
792.70	1081.56
793.02	1076.88
793.35	1076.41
793.67	1079.46
793.99	1079.69
794.32	1076.88
794.64	1088.82
794.96	1086.94
795.29	1091.16
795.61	1091.39
795.93	1093.50
796.26	1091.39
796.58	1095.14
796.91	1089.05
797.23	1100.52
797.55	1096.07
797.87	1095.60
798.20	1092.09
798.52	1093.73
798.84	1084.84
799.17	1083.43
799.49	1079.22
799.81	1075.01
800.14	1065.88
800.46	1062.37
800.78	1058.16
801.10	1057.69
801.43	1058.39
801.75	1074.07
802.07	1076.41
802.40	1084.84
802.72	1088.58
803.04	1100.52
803.36	1090.92
803.69	1083.67
804.01	1077.82
804.33	1075.48
804.65	1072.20
804.97	1070.80
805.30	1081.33
805.62	1086.48
805.94	1088.82
806.26	1081.56
806.58	1082.97
806.91	1077.58
807.23	1071.03
807.55	1074.07
807.87	1071.03
808.19	1074.07
808.52	1078.05
808.84	1085.31
809.16	1083.67
809.48	1090.46
809.80	1093.97
810.12	1096.54
810.44	1092.80
810.77	1085.31
811.09	1075.94
811.41	1070.33
811.73	1067.05
812.05	1072.20
812.37	1082.03
812.69	1090.22
813.01	1088.58
813.33	1089.99
813.66	1092.80
813.98	1088.35
814.30	1093.50
814.62	1100.99
814.94	1097.95
815.26	1088.35
815.58	1089.29
815.90	1090.46
816.22	1082.50
816.54	1084.60
816.86	1089.52
817.18	1085.77
817.50	1074.31
817.82	1078.75
818.14	1075.48
818.46	1062.60
818.78	1064.48
819.10	1069.39
819.42	1067.75
819.74	1074.77
820.06	1091.16
820.38	1079.22
820.70	1080.63
821.02	1084.14
821.34	1077.11
821.66	1080.86
821.98	1095.37
822.30	1091.86
822.62	1093.50
822.94	1089.75
823.26	1076.41
823.58	1076.65
823.90	1083.43
824.22	1078.28
824.54	1077.58
824.86	1086.48
825.18	1082.97
825.50	1078.52
825.81	1079.92
826.13	1090.69
826.45	1090.92
826.77	1090.46
827.09	1097.71
827.41	1100.29
827.73	1097.01
828.05	1093.73
828.36	1094.43
828.68	1079.92
829.00	1069.86
829.32	1066.11
829.64	1070.56
829.96	1075.48
830.28	1078.28
830.59	1083.90
830.91	1093.50
831.23	1088.35
831.55	1088.35
831.87	1097.24
832.19	1092.56
832.50	1078.52
832.82	1074.54
833.14	1067.52
833.46	1053.71
833.78	1054.88
834.09	1063.07
834.41	1062.14
834.73	1064.94
835.05	1070.09
835.36	1075.24
835.68	1071.73
836.00	1075.01
836.32	1068.45
836.63	1071.50
836.95	1066.58
837.27	1060.96
837.59	1062.84
837.90	1071.97
838.22	1074.77
838.54	1076.65
838.85	1078.99
839.17	1074.07
839.49	1070.56
839.80	1076.41
840.12	1079.69
840.44	1087.18
840.76	1099.58
841.07	1097.24
841.39	1090.69
841.71	1082.26
842.02	1081.56
842.34	1082.03
842.65	1082.03
842.97	1078.52
843.29	1084.84
843.60	1084.14
843.92	1075.94
844.24	1080.63
844.55	1079.22
844.87	1086.71
845.18	1087.18
845.50	1082.26
845.82	1078.52
846.13	1081.80
846.45	1080.16
846.76	1081.09
847.08	1087.41
847.40	1084.37
847.71	1094.20
848.03	1090.22
848.34	1090.69
848.66	1095.14
848.97	1097.24
849.29	1088.35
849.60	1093.97
849.92	1090.69
850.24	1078.99
850.55	1078.75
850.87	1069.62
851.18	1066.82
851.50	1071.03
851.81	1074.31
852.13	1075.71
852.44	1087.41
852.76	1075.01
853.07	1074.77
853.39	1069.62
853.70	1069.62
854.01	1075.48
854.33	1077.82
854.64	1068.22
854.96	1078.05
855.27	1086.71
855.59	1073.60
855.90	1077.82
856.22	1085.07
856.53	1095.14
856.84	1078.99
857.16	1089.99
857.47	1095.60
857.79	1097.01
858.10	1082.97
858.41	1091.63
858.73	1086.24
859.04	1088.12
859.36	1093.97
859.67	1093.73
859.98	1097.48
860.30	1097.48
860.61	1089.75
860.92	1081.80
861.24	1083.43
861.55	1080.16
861.87	1074.07
862.18	1079.69
862.49	1079.92
862.81	1075.94
863.12	1067.99
863.43	1077.82
863.74	1082.26
864.06	1081.33
864.37	1090.22
864.68	1089.52
865.00	1081.56
865.31	1071.73
865.62	1077.11
865.94	1075.94
866.25	1088.12
866.56	1089.29
866.87	1086.48
867.19	1081.80
867.50	1071.03
867.81	1062.84
868.12	1064.24
868.44	1061.20
868.75	1063.07
869.06	1065.18
869.37	1075.24
869.68	1077.82
870.00	1082.73
870.31	1081.09
870.62	1081.56
870.93	1077.35
871.24	1072.20
871.56	1077.35
871.87	1082.03
872.18	1081.80
872.49	1080.63
872.80	1086.48
873.12	1084.60
873.43	1077.11
873.74	1077.82
874.05	1076.88
874.36	1080.39
874.67	1091.39
874.98	1097.48
875.29	1105.44
875.61	1098.65
875.92	1094.20
876.23	1077.35
876.54	1076.41
876.85	1065.65
877.16	1070.09
877.47	1072.67
877.78	1073.84
878.09	1070.09
878.40	1068.22
878.72	1073.37
879.03	1062.60
879.34	1067.05
879.65	1071.73
879.96	1079.22
880.27	1079.69
880.58	1082.26
880.89	1085.07
881.20	1077.58
881.51	1076.41
881.82	1082.50
882.13	1080.86
882.44	1073.37
882.75	1074.07
883.06	1077.58
883.37	1068.92
883.68	1075.94
883.99	1085.77
884.30	1085.77
884.61	1079.92
884.92	1080.16
885.23	1077.82
885.54	1069.62
885.85	1074.31
886.16	1079.92
886.47	1072.67
886.78	1066.58
887.08	1069.86
887.39	1066.58
887.70	1065.65
888.01	1068.45
888.32	1080.63
888.63	1080.63
888.94	1072.43
889.25	1073.14
889.56	1071.73
889.87	1070.09
890.17	1072.43
890.48	1076.41
890.79	1072.90
891.10	1076.18
891.41	1081.80
891.72	1072.90
892.03	1071.03
892.34	1066.82
892.64	1062.84
892.95	1060.50
893.26	1063.77
893.57	1079.92
893.88	1082.50
894.18	1080.39
894.49	1075.71
894.80	1072.67
895.11	1065.18
895.42	1065.88
895.72	1073.14
896.03	1067.28
896.34	1074.07
896.65	1080.39
896.96	1085.54
897.26	1088.82
897.57	1096.54
897.88	1095.37
898.19	1088.35
898.49	1087.65
898.80	1084.60
899.11	1077.11
899.41	1084.14
899.72	1081.80
900.03	1076.65
900.34	1080.39
900.64	1080.39
900.95	1070.09
901.26	1077.35
901.56	1081.80
901.87	1068.69
902.18	1064.24
902.48	1067.99
902.79	1059.09
903.10	1057.69
903.40	1071.73
903.71	1075.24
904.02	1077.11
904.32	1075.71
904.63	1072.43
904.94	1070.80
905.24	1074.54
905.55	1070.80
905.85	1069.39
906.16	1076.18
906.47	1078.75
906.77	1082.73
907.08	1081.09
907.38	1099.82
907.69	1095.37
908.00	1088.12
908.30	1084.84
908.61	1081.09
908.91	1062.60
909.22	1059.09
909.52	1055.11
909.83	1051.37
910.14	1060.73
910.44	1065.18
910.75	1075.71
911.05	1085.31
911.36	1090.69
911.66	1083.90
911.97	1093.03
912.27	1095.60
912.58	1092.80
912.88	1094.43
913.19	1100.29
913.49	1089.29
913.80	1085.54
914.10	1082.50
914.41	1083.90
914.71	1093.97
915.01	1105.67
915.32	1107.54
915.62	1105.20
915.93	1102.86
916.23	1097.48
916.54	1094.20
916.84	1089.99
917.15	1089.29
917.45	1088.35
917.75	1083.67
918.06	1083.90
918.36	1081.56
918.67	1077.82
918.97	1079.46
919.27	1079.22
919.58	1067.75
919.88	1070.09
920.18	1079.22
920.49	1081.09
920.79	1081.33
921.10	1078.52
921.40	1073.37
921.70	1070.56
922.01	1064.48
922.31	1065.41
922.61	1072.67
922.92	1067.05
923.22	1063.54
923.52	1069.39
923.82	1066.82
924.13	1070.09
924.43	1078.99
924.73	1077.58
925.04	1075.24
925.34	1077.35
925.64	1077.58
925.94	1085.77
926.25	1089.99
926.55	1086.94
926.85	1090.69
927.15	1091.63
927.46	1076.88
927.76	1078.52
928.06	1079.92
928.36	1069.39
928.67	1069.86
928.97	1074.54
929.27	1072.43
929.57	1083.20
929.87	1079.92
930.18	1080.39
930.48	1070.33
930.78	1066.35
931.08	1056.28
931.38	1069.62
931.69	1064.48
931.99	1071.50
932.29	1075.48
932.59	1085.07
932.89	1076.65
933.19	1081.80
933.49	1090.46
933.80	1093.26
934.10	1083.67
934.40	1095.60
934.70	1098.88
935.00	1086.71
935.30	1083.43
935.60	1078.05
935.90	1070.56
936.20	1059.33
936.50	1072.90
936.81	1077.35
937.11	1081.56
937.41	1084.84
937.71	1091.16
938.01	1089.05
938.31	1080.16
938.61	1075.01
938.91	1080.63
939.21	1077.58
939.51	1077.35
939.81	1078.52
940.11	1085.54
940.41	1075.48
940.71	1084.37
941.01	1085.31
941.31	1096.54
941.61	1100.75
941.91	1099.58
942.21	1096.78
942.51	1105.44
942.81	1104.97
943.11	1093.97
943.41	1096.07
943.71	1098.65
944.01	1085.31
944.31	1089.99
944.61	1098.65
944.90	1089.05
945.20	1083.90
945.50	1075.24
945.80	1071.26
946.10	1065.88
946.40	1074.77
946.70	1069.39
947.00	1078.99
947.30	1065.65
947.60	1065.41
947.89	1065.41
948.19	1062.84
948.49	1069.39
948.79	1079.22
949.09	1086.48
949.39	1087.88
949.69	1095.60
949.98	1095.60
950.28	1096.31
950.58	1086.24
950.88	1088.12
951.18	1083.43
951.48	1074.54
951.77	1079.69
952.07	1086.01
952.37	1082.97
952.67	1086.48
952.97	1089.29
953.26	1084.14
953.56	1079.46
953.86	1087.41
954.16	1089.75
954.45	1085.54
954.75	1084.60
955.05	1085.77
955.35	1080.16
955.64	1078.05
955.94	1080.39
956.24	1084.60
956.54	1087.41
956.83	1072.20
957.13	1066.58
957.43	1076.41
957.72	1074.54
958.02	1073.84
958.32	1090.92
958.61	1099.82
958.91	1091.39
959.21	1095.60
959.50	1099.58
959.80	1105.67
960.10	1106.84
960.39	1101.92
960.69	1088.12
960.99	1078.05
961.28	1074.07
961.58	1068.45
961.87	1066.82
962.17	1068.69
962.47	1068.92
962.76	1052.30
963.06	1047.16
963.36	1052.07
963.65	1060.26
963.95	1068.92
964.24	1082.50
964.54	1097.24
964.83	1103.33
965.13	1095.37
965.42	1076.88
965.72	1081.56
966.02	1068.22
966.31	1074.31
966.61	1074.07
966.90	1089.75
967.20	1085.07
967.49	1092.56
967.79	1079.46
968.08	1084.84
968.38	1092.80
968.67	1086.48
968.97	1091.86
969.26	1098.41
969.56	1097.24
969.85	1081.56
970.15	1086.24
970.44	1064.48
970.74	1060.26
971.03	1056.75
971.32	1057.45
971.62	1065.41
971.91	1071.97
972.21	1077.58
972.50	1084.84
972.80	1097.95
973.09	1093.73
973.38	1099.12
973.68	1092.33
973.97	1094.20
974.27	1087.18
974.56	1076.65
974.85	1076.41
975.15	1082.50
975.44	1065.18
975.73	1076.41
976.03	1079.22
976.32	1074.54
976.61	1067.75
976.91	1083.20
977.20	1069.86
977.49	1067.75
977.79	1084.37
978.08	1093.50
978.37	1088.12
978.67	1091.39
978.96	1097.71
979.25	1094.43
979.55	1084.37
979.84	1085.77
980.13	1071.26
980.42	1061.20
980.72	1053.94
981.01	1054.18
981.30	1056.75
981.59	1078.75
981.89	1085.54
982.18	1087.18
982.47	1088.82
982.76	1093.73
983.06	1089.75
983.35	1088.58
983.64	1075.48
983.93	1078.52
984.22	1071.50
984.52	1068.69
984.81	1071.97
985.10	1073.37
985.39	1077.35
985.68	1080.16
985.97	1081.33
986.27	1085.31
986.56	1092.80
986.85	1083.90
987.14	1084.14
987.43	1082.03
987.72	1075.94
988.01	1076.88
988.31	1087.18
988.60	1079.46
988.89	1084.37
989.18	1079.22
989.47	1074.31
989.76	1063.54
990.05	1061.20
990.34	1055.35
990.63	1062.14
990.92	1066.58
991.21	1065.65
991.51	1065.18
991.80	1070.33
992.09	1063.07
992.38	1068.92
992.67	1072.20
992.96	1088.12
993.25	1089.52
993.54	1094.20
993.83	1094.90
994.12	1101.46
994.41	1093.50
994.70	1086.24
994.99	1080.39
995.28	1086.24
995.57	1086.24
995.86	1082.03
996.15	1082.26
996.44	1095.37
996.73	1088.58
997.02	1081.80
997.31	1075.48
997.59	1075.01
997.88	1077.58
998.17	1078.05
998.46	1074.54
998.75	1079.22
999.04	1082.50
999.33	1080.39
999.62	1075.71
999.91	1075.48
1000.20	1082.26
1000.49	1079.92
1000.77	1080.63
1001.06	1087.88
1001.35	1086.94
1001.64	1088.12
1001.93	1092.56
1002.22	1092.80
1002.51	1086.24
1002.79	1086.71
1003.08	1085.54
1003.37	1076.88
1003.66	1073.84
1003.95	1066.35
1004.23	1077.35
1004.52	1071.50
1004.81	1076.41
1005.10	1071.26
1005.39	1079.22
1005.67	1068.22
1005.96	1071.97
1006.25	1081.80
1006.54	1079.46
1006.83	1076.41
1007.11	1076.65
1007.40	1078.28
1007.69	1077.35
1007.97	1078.99
1008.26	1083.20
1008.55	1082.97
1008.84	1082.50
1009.12	1068.92
1009.41	1081.09
1009.70	1087.88
1009.98	1096.54
1010.27	1097.71
1010.56	1107.07
1010.85	1104.73
1011.13	1095.84
1011.42	1094.67
1011.71	1100.05
1011.99	1095.60
1012.28	1086.71
1012.56	1086.01
1012.85	1080.16
1013.14	1067.05
1013.42	1061.90
1013.71	1067.28
1014.00	1070.56
1014.28	1077.35
1014.57	1074.07
1014.85	1076.41
1015.14	1082.26
1015.43	1082.26
1015.71	1085.31
1016.00	1093.26
1016.28	1100.52
1016.57	1094.90
1016.85	1081.09
1017.14	1076.18
1017.43	1072.67
1017.71	1064.24
1018.00	1057.45
1018.28	1064.71
1018.57	1055.58
1018.85	1060.96
1019.14	1068.92
1019.42	1078.05
1019.71	1077.82
1019.99	1092.33
1020.28	1099.12
1020.56	1096.07
1020.85	1093.73
1021.13	1093.73
1021.42	1090.92
1021.70	1082.73
1021.99	1082.97
1022.27	1080.63
1022.55	1088.35
1022.84	1087.18
>>>>>End Processed Spectral Data<<<<<
