SpectraSuite Data File
++++++++++++++++++++++++++++++++++++
Date: Mon Aug 26 10:24:49 PDT 2019
User: corrico
Dark Spectrum Present: No
Reference Spectrum Present: No
Number of Sampled Component Spectra: 1
Spectrometers: USB2+H06089
Integration Time (usec): 10000 (USB2+H06089)
Spectra Averaged: 2 (USB2+H06089)
Boxcar Smoothing: 2 (USB2+H06089)
Correct for Electrical Dark: No (USB2+H06089)
Strobe/Lamp Enabled: No (USB2+H06089)
Correct for Detector Non-linearity: No (USB2+H06089)
Correct for Stray Light: No (USB2+H06089)
Number of Pixels in Processed Spectrum: 2048
>>>>>Begin Processed Spectral Data<<<<<
339.70	1019.30
340.07	1019.30
340.45	978.11
340.82	952.36
341.19	929.43
341.57	913.28
341.94	908.60
342.31	904.62
342.69	899.47
343.06	898.53
343.43	889.64
343.81	895.72
344.18	899.00
344.55	906.49
344.93	915.38
345.30	924.98
345.67	921.70
346.04	936.92
346.42	948.62
346.79	957.28
347.16	965.47
347.54	968.98
347.91	968.75
348.28	987.24
348.65	991.22
349.03	994.49
349.40	1014.86
349.77	1032.64
350.14	1032.88
350.52	1043.64
350.89	1059.09
351.26	1067.28
351.63	1067.52
352.01	1074.54
352.38	1071.50
352.75	1081.56
353.12	1083.67
353.50	1088.35
353.87	1087.88
354.24	1099.58
354.61	1087.41
354.98	1084.14
355.36	1084.60
355.73	1089.75
356.10	1090.69
356.47	1088.82
356.84	1085.07
357.22	1079.92
357.59	1072.20
357.96	1077.82
358.33	1082.50
358.70	1092.80
359.08	1090.22
359.45	1088.82
359.82	1087.65
360.19	1094.20
360.56	1090.69
360.94	1095.84
361.31	1097.01
361.68	1088.12
362.05	1073.37
362.42	1068.92
362.79	1071.97
363.16	1071.73
363.54	1064.94
363.91	1077.58
364.28	1076.18
364.65	1072.67
365.02	1077.11
365.39	1085.77
365.76	1082.26
366.14	1086.01
366.51	1082.73
366.88	1077.11
367.25	1073.37
367.62	1071.03
367.99	1077.11
368.36	1078.75
368.73	1080.63
369.10	1075.48
369.48	1076.65
369.85	1071.73
370.22	1081.09
370.59	1087.65
370.96	1090.69
371.33	1086.01
371.70	1086.24
372.07	1080.63
372.44	1074.31
372.81	1077.35
373.18	1087.65
373.55	1083.90
373.93	1084.14
374.30	1083.43
374.67	1090.92
375.04	1090.69
375.41	1099.12
375.78	1105.67
376.15	1111.05
376.52	1107.54
376.89	1105.20
377.26	1093.26
377.63	1083.43
378.00	1080.86
378.37	1072.90
378.74	1077.58
379.11	1088.82
379.48	1097.24
379.85	1098.88
380.22	1110.12
380.59	1107.54
380.96	1099.82
381.33	1085.77
381.70	1088.82
382.07	1081.80
382.44	1083.20
382.81	1089.99
383.18	1099.12
383.55	1099.82
383.92	1105.44
384.29	1101.92
384.66	1108.48
385.03	1109.88
385.40	1113.86
385.77	1113.39
386.14	1118.07
386.51	1111.29
386.88	1114.09
387.25	1113.86
387.62	1116.44
387.99	1117.14
388.36	1118.07
388.73	1111.99
389.10	1103.80
389.46	1100.52
389.83	1099.35
390.20	1103.09
390.57	1109.18
390.94	1108.48
391.31	1108.01
391.68	1106.84
392.05	1092.09
392.42	1092.33
392.79	1105.44
393.16	1112.46
393.53	1118.78
393.89	1131.41
394.26	1130.24
394.63	1123.69
395.00	1122.99
395.37	1119.24
395.74	1115.50
396.11	1113.86
396.48	1111.05
396.84	1115.97
397.21	1111.99
397.58	1114.56
397.95	1118.54
398.32	1127.20
398.69	1122.29
399.06	1130.95
399.42	1140.31
399.79	1149.91
400.16	1150.84
400.53	1158.33
400.90	1163.48
401.27	1174.95
401.64	1176.12
402.00	1176.35
402.37	1179.86
402.74	1180.10
403.11	1172.84
403.48	1173.08
403.84	1185.48
404.21	1188.29
404.58	1197.42
404.95	1214.74
405.32	1235.33
405.68	1248.21
406.05	1259.44
406.42	1270.44
406.79	1280.04
407.16	1294.08
407.52	1294.32
407.89	1304.15
408.26	1327.32
408.63	1347.45
408.99	1358.68
409.36	1389.58
409.73	1421.64
410.10	1445.75
410.47	1464.01
410.83	1507.07
411.20	1550.84
411.57	1585.24
411.94	1631.12
412.30	1678.63
412.67	1712.80
413.04	1750.72
413.40	1807.13
413.77	1862.36
414.14	1928.84
414.51	1998.58
414.87	2075.82
415.24	2143.70
415.61	2218.59
415.97	2304.49
416.34	2397.18
416.71	2483.31
417.08	2571.55
417.44	2665.64
417.81	2778.45
418.18	2892.67
418.54	3024.91
418.91	3177.98
419.28	3331.99
419.64	3476.40
420.01	3652.64
420.38	3823.97
420.74	4003.49
421.11	4210.62
421.48	4418.23
421.84	4638.47
422.21	4853.80
422.58	5110.33
422.94	5360.53
423.31	5631.80
423.68	5897.92
424.04	6218.34
424.41	6489.60
424.77	6785.68
425.14	7086.91
425.51	7406.16
425.87	7757.94
426.24	8137.81
426.61	8591.40
426.97	9104.92
427.34	9580.28
427.70	10083.03
428.07	10617.84
428.44	11092.50
428.80	11561.08
429.17	12139.89
429.53	12660.89
429.90	13294.01
430.27	13878.44
430.63	14477.15
431.00	15143.27
431.36	15892.71
431.73	16461.46
432.09	17161.74
432.46	17855.48
432.83	18464.72
433.19	19037.68
433.56	19774.48
433.92	20479.69
434.29	21128.25
434.65	21829.71
435.02	22454.16
435.38	23131.05
435.75	23652.28
436.11	24249.12
436.48	24691.25
436.84	25268.89
437.21	25630.50
437.57	26092.29
437.94	26531.14
438.30	26955.48
438.67	27227.22
439.03	27470.87
439.40	27617.15
439.76	27548.57
440.13	27519.08
440.49	27437.87
440.86	27169.87
441.22	26940.74
441.59	26627.10
441.95	26188.96
442.32	25615.99
442.68	25180.89
443.05	24650.52
443.41	24103.54
443.78	23574.34
444.14	23085.87
444.51	22490.21
444.87	22021.87
445.24	21567.80
445.60	21084.72
445.96	20542.65
446.33	20109.88
446.69	19469.75
447.06	18953.66
447.42	18413.46
447.79	17890.82
448.15	17466.72
448.51	16988.08
448.88	16580.82
449.24	16142.67
449.61	15812.19
449.97	15374.75
450.33	15049.41
450.70	14570.54
451.06	14173.58
451.43	13742.46
451.79	13347.84
452.15	12969.38
452.52	12659.49
452.88	12354.28
453.24	12057.74
453.61	11772.43
453.97	11490.39
454.34	11177.93
454.70	10898.00
455.06	10657.40
455.43	10350.55
455.79	9984.96
456.15	9727.27
456.52	9422.53
456.88	9135.58
457.24	8856.35
457.61	8652.96
457.97	8403.46
458.33	8155.60
458.70	7865.60
459.06	7600.42
459.42	7380.65
459.79	7114.06
460.15	6890.30
460.51	6689.95
460.88	6506.22
461.24	6280.13
461.60	6116.76
461.96	5920.85
462.33	5757.48
462.69	5575.39
463.05	5415.06
463.42	5268.08
463.78	5137.94
464.14	4989.55
464.50	4882.12
464.87	4790.61
465.23	4673.35
465.59	4561.00
465.95	4451.46
466.32	4333.50
466.68	4222.56
467.04	4121.22
467.40	4046.79
467.77	3966.74
468.13	3906.59
468.49	3833.80
468.85	3768.03
469.22	3696.88
469.58	3615.89
469.94	3540.29
470.30	3466.57
470.66	3402.90
471.03	3343.22
471.39	3318.88
471.75	3250.30
472.11	3177.75
472.47	3111.51
472.84	3046.68
473.20	2972.48
473.56	2934.33
473.92	2891.97
474.28	2852.88
474.65	2801.86
475.01	2755.75
475.37	2690.21
475.73	2644.10
476.09	2614.85
476.45	2570.14
476.81	2524.97
477.18	2492.20
477.54	2473.48
477.90	2434.86
478.26	2406.77
478.62	2383.37
478.98	2352.47
479.34	2323.68
479.71	2281.09
480.07	2253.70
480.43	2208.76
480.79	2180.21
481.15	2144.63
481.51	2125.21
481.87	2095.95
482.23	2090.33
482.59	2078.86
482.96	2053.82
483.32	2032.76
483.68	2022.69
484.04	1993.43
484.40	1959.73
484.76	1942.88
485.12	1913.39
485.48	1886.00
485.84	1868.45
486.20	1858.62
486.56	1836.15
486.92	1832.64
487.28	1809.94
487.64	1798.94
488.00	1785.36
488.37	1763.13
488.73	1730.59
489.09	1706.48
489.45	1677.23
489.81	1661.78
490.17	1647.50
490.53	1636.74
490.89	1624.10
491.25	1606.54
491.61	1587.82
491.97	1571.67
492.33	1563.24
492.69	1557.39
493.05	1550.37
493.41	1535.63
493.77	1525.56
494.13	1503.79
494.49	1483.20
494.85	1466.11
495.21	1448.32
495.57	1439.20
495.93	1430.54
496.29	1433.58
496.64	1437.09
497.00	1428.66
497.36	1418.83
497.72	1404.56
498.08	1398.00
498.44	1387.24
498.80	1386.30
499.16	1382.09
499.52	1366.40
499.88	1355.87
500.24	1346.04
500.60	1325.91
500.96	1318.19
501.32	1324.51
501.68	1311.40
502.03	1302.74
502.39	1302.98
502.75	1286.12
503.11	1278.87
503.47	1285.19
503.83	1282.15
504.19	1287.29
504.55	1289.17
504.91	1284.72
505.26	1265.29
505.62	1258.97
505.98	1243.99
506.34	1242.59
506.70	1234.40
507.06	1234.63
507.42	1234.16
507.78	1232.99
508.13	1225.97
508.49	1218.48
508.85	1225.27
509.21	1215.44
509.57	1211.93
509.93	1204.21
510.28	1210.53
510.64	1197.65
511.00	1196.48
511.36	1184.78
511.72	1181.27
512.07	1179.40
512.43	1171.67
512.79	1169.10
513.15	1172.84
513.51	1175.89
513.86	1167.46
514.22	1176.35
514.58	1173.54
514.94	1169.10
515.30	1164.18
515.65	1166.99
516.01	1164.18
516.37	1156.22
516.73	1154.12
517.08	1145.93
517.44	1134.69
517.80	1122.52
518.16	1125.56
518.51	1131.41
518.87	1131.18
519.23	1132.82
519.59	1136.33
519.94	1138.44
520.30	1140.54
520.66	1136.56
521.01	1134.46
521.37	1143.35
521.73	1141.25
522.09	1142.18
522.44	1142.65
522.80	1144.99
523.16	1138.44
523.51	1145.46
523.87	1124.39
524.23	1133.99
524.58	1143.82
524.94	1143.12
525.30	1117.61
525.65	1123.69
526.01	1111.99
526.37	1102.16
526.72	1090.69
527.08	1111.75
527.44	1115.50
527.79	1119.24
528.15	1128.61
528.51	1138.67
528.86	1123.46
529.22	1122.05
529.58	1123.22
529.93	1118.07
530.29	1122.05
530.65	1135.86
531.00	1139.37
531.36	1147.80
531.71	1150.37
532.07	1147.10
532.43	1131.88
532.78	1124.39
533.14	1121.12
533.49	1106.61
533.85	1103.33
534.21	1114.33
534.56	1120.88
534.92	1119.48
535.27	1127.90
535.63	1122.75
535.98	1112.22
536.34	1104.73
536.69	1095.37
537.05	1087.65
537.41	1087.65
537.76	1100.29
538.12	1109.88
538.47	1113.63
538.83	1114.80
539.18	1111.52
539.54	1103.56
539.89	1096.07
540.25	1101.92
540.60	1097.71
540.96	1112.46
541.31	1120.41
541.67	1123.22
542.02	1132.35
542.38	1146.16
542.73	1136.80
543.09	1130.01
543.44	1126.03
543.80	1120.41
544.15	1119.24
544.51	1117.37
544.86	1119.48
545.22	1119.01
545.57	1109.88
545.93	1103.80
546.28	1102.63
546.64	1090.92
546.99	1083.43
547.35	1086.48
547.70	1083.90
548.05	1084.84
548.41	1100.52
548.76	1114.33
549.12	1113.86
549.47	1116.44
549.83	1112.92
550.18	1100.75
550.53	1095.84
550.89	1091.86
551.24	1089.29
551.60	1088.35
551.95	1086.94
552.30	1088.12
552.66	1083.20
553.01	1083.90
553.37	1091.86
553.72	1094.43
554.07	1085.77
554.43	1091.39
554.78	1094.20
555.13	1095.84
555.49	1108.48
555.84	1115.97
556.19	1113.63
556.55	1106.84
556.90	1101.69
557.26	1091.16
557.61	1082.03
557.96	1089.05
558.32	1090.69
558.67	1085.54
559.02	1082.97
559.37	1090.22
559.73	1085.54
560.08	1084.84
560.43	1087.88
560.79	1095.84
561.14	1096.78
561.49	1098.18
561.85	1102.39
562.20	1102.86
562.55	1105.90
562.90	1105.90
563.26	1094.43
563.61	1094.20
563.96	1089.29
564.32	1078.75
564.67	1075.71
565.02	1096.78
565.37	1092.80
565.73	1094.90
566.08	1105.44
566.43	1109.18
566.78	1096.54
567.14	1096.54
567.49	1106.84
567.84	1100.75
568.19	1102.39
568.54	1093.50
568.90	1088.58
569.25	1076.65
569.60	1068.69
569.95	1065.65
570.31	1069.39
570.66	1078.99
571.01	1085.54
571.36	1086.94
571.71	1080.16
572.06	1086.71
572.42	1085.07
572.77	1076.18
573.12	1084.60
573.47	1086.01
573.82	1081.80
574.18	1074.77
574.53	1080.63
574.88	1080.39
575.23	1089.99
575.58	1101.22
575.93	1105.44
576.28	1109.65
576.64	1105.20
576.99	1094.90
577.34	1088.12
577.69	1087.88
578.04	1087.41
578.39	1090.69
578.74	1103.33
579.09	1102.86
579.44	1101.69
579.80	1098.41
580.15	1093.97
580.50	1088.12
580.85	1090.22
581.20	1089.29
581.55	1085.77
581.90	1078.52
582.25	1071.73
582.60	1071.73
582.95	1072.43
583.30	1069.86
583.65	1074.31
584.00	1079.92
584.35	1075.71
584.71	1083.67
585.06	1089.29
585.41	1095.14
585.76	1091.39
586.11	1093.73
586.46	1093.97
586.81	1099.35
587.16	1099.12
587.51	1113.39
587.86	1111.75
588.21	1111.75
588.56	1108.71
588.91	1106.84
589.26	1091.16
589.61	1093.73
589.96	1095.37
590.31	1091.63
590.66	1088.12
591.01	1097.95
591.36	1091.16
591.71	1086.71
592.06	1082.73
592.41	1084.84
592.76	1079.69
593.10	1087.41
593.45	1089.05
593.80	1091.16
594.15	1097.24
594.50	1099.12
594.85	1094.43
595.20	1098.65
595.55	1103.80
595.90	1089.75
596.25	1086.94
596.60	1087.88
596.95	1075.94
597.30	1074.77
597.64	1126.97
597.99	1132.59
598.34	1130.71
598.69	1141.25
599.04	1142.18
599.39	1095.84
599.74	1095.60
600.09	1101.22
600.44	1097.48
600.78	1093.03
601.13	1102.63
601.48	1097.48
601.83	1097.71
602.18	1096.31
602.53	1102.39
602.88	1096.07
603.22	1094.43
603.57	1086.01
603.92	1077.58
604.27	1072.43
604.62	1063.77
604.97	1059.09
605.31	1065.18
605.66	1067.05
606.01	1074.31
606.36	1087.88
606.71	1089.52
607.05	1091.86
607.40	1092.56
607.75	1088.58
608.10	1084.60
608.44	1085.07
608.79	1077.58
609.14	1081.33
609.49	1084.60
609.84	1081.80
610.18	1094.20
610.53	1100.99
610.88	1104.97
611.23	1108.95
611.57	1115.03
611.92	1113.39
612.27	1114.10
612.62	1104.73
612.96	1101.69
613.31	1099.12
613.66	1090.46
614.00	1095.60
614.35	1096.54
614.70	1091.39
615.05	1084.14
615.39	1087.41
615.74	1067.75
616.09	1073.14
616.43	1069.62
616.78	1070.33
617.13	1059.79
617.47	1074.54
617.82	1074.31
618.17	1076.65
618.51	1071.26
618.86	1077.58
619.21	1074.77
619.55	1080.63
619.90	1077.58
620.25	1087.88
620.59	1088.82
620.94	1098.88
621.29	1103.56
621.63	1108.01
621.98	1109.18
622.32	1113.39
622.67	1107.78
623.02	1097.95
623.36	1092.80
623.71	1091.63
624.05	1081.56
624.40	1074.31
624.75	1078.75
625.09	1087.41
625.44	1093.26
625.78	1097.48
626.13	1094.43
626.48	1087.65
626.82	1083.67
627.17	1078.28
627.51	1076.41
627.86	1071.26
628.20	1077.58
628.55	1082.03
628.89	1081.56
629.24	1089.75
629.58	1092.33
629.93	1079.22
630.28	1072.20
630.62	1086.01
630.97	1083.43
631.31	1094.43
631.66	1100.75
632.00	1098.41
632.35	1085.31
632.69	1091.63
633.04	1087.41
633.38	1096.78
633.73	1105.44
634.07	1095.14
634.42	1093.03
634.76	1083.20
635.11	1075.24
635.45	1071.97
635.79	1078.05
636.14	1069.16
636.48	1074.77
636.83	1071.03
637.17	1064.48
637.52	1075.01
637.86	1087.41
638.21	1088.35
638.55	1094.67
638.89	1102.63
639.24	1095.37
639.58	1084.37
639.93	1094.43
640.27	1089.52
640.61	1085.77
640.96	1089.52
641.30	1092.80
641.65	1085.31
641.99	1087.88
642.33	1095.84
642.68	1095.14
643.02	1094.43
643.37	1092.56
643.71	1092.09
644.05	1086.24
644.40	1092.09
644.74	1094.20
645.08	1103.80
645.43	1100.75
645.77	1095.84
646.11	1085.77
646.46	1081.80
646.80	1070.80
647.14	1061.43
647.49	1068.69
647.83	1076.18
648.17	1083.43
648.52	1097.71
648.86	1116.44
649.20	1116.44
649.55	1114.56
649.89	1108.24
650.23	1101.69
650.57	1097.48
650.92	1092.80
651.26	1082.97
651.60	1085.77
651.95	1086.71
652.29	1086.71
652.63	1085.77
652.97	1088.35
653.32	1082.03
653.66	1086.71
654.00	1085.54
654.34	1089.05
654.69	1093.73
655.03	1101.22
655.37	1090.46
655.71	1092.33
656.05	1096.78
656.40	1100.75
656.74	1102.16
657.08	1100.52
657.42	1088.82
657.76	1082.03
658.11	1076.18
658.45	1077.11
658.79	1081.33
659.13	1085.07
659.47	1079.92
659.82	1083.67
660.16	1079.92
660.50	1074.31
660.84	1083.67
661.18	1089.99
661.52	1098.41
661.87	1104.03
662.21	1110.35
662.55	1099.35
662.89	1105.90
663.23	1095.60
663.57	1080.86
663.91	1073.84
664.25	1072.90
664.60	1065.18
664.94	1064.24
665.28	1073.14
665.62	1075.71
665.96	1082.03
666.30	1078.75
666.64	1084.84
666.98	1087.88
667.32	1099.12
667.66	1089.05
668.01	1094.20
668.35	1086.01
668.69	1078.99
669.03	1074.31
669.37	1081.56
669.71	1079.22
670.05	1077.35
670.39	1083.90
670.73	1088.82
671.07	1096.31
671.41	1096.07
671.75	1093.97
672.09	1092.09
672.43	1092.09
672.77	1090.46
673.11	1083.90
673.45	1085.31
673.79	1090.69
674.13	1089.29
674.47	1086.01
674.81	1092.09
675.15	1093.97
675.49	1087.18
675.83	1076.18
676.17	1074.07
676.51	1080.63
676.85	1081.56
677.19	1079.92
677.53	1084.60
677.87	1090.92
678.21	1086.24
678.55	1091.86
678.89	1092.33
679.23	1096.78
679.57	1094.67
679.90	1101.22
680.24	1096.31
680.58	1097.01
680.92	1090.46
681.26	1092.80
681.60	1094.67
681.94	1095.37
682.28	1102.86
682.62	1100.52
682.96	1089.05
683.29	1080.86
683.63	1082.26
683.97	1081.33
684.31	1082.50
684.65	1092.09
684.99	1096.54
685.33	1101.22
685.67	1097.01
686.00	1100.99
686.34	1103.80
686.68	1105.90
687.02	1102.86
687.36	1097.71
687.70	1090.46
688.03	1081.80
688.37	1068.69
688.71	1061.90
689.05	1067.28
689.39	1071.26
689.72	1078.05
690.06	1094.67
690.40	1096.31
690.74	1094.90
691.08	1095.60
691.41	1098.88
691.75	1091.63
692.09	1093.03
692.43	1090.92
692.76	1095.37
693.10	1086.71
693.44	1088.58
693.78	1090.46
694.11	1098.88
694.45	1099.82
694.79	1102.39
695.13	1095.60
695.46	1102.16
695.80	1091.63
696.14	1087.65
696.48	1086.94
696.81	1088.82
697.15	1086.24
697.49	1094.20
697.82	1086.24
698.16	1090.46
698.50	1103.09
698.83	1096.31
699.17	1088.12
699.51	1097.48
699.84	1099.12
700.18	1090.46
700.52	1082.97
700.85	1086.01
701.19	1081.33
701.53	1071.03
701.86	1072.67
702.20	1069.62
702.54	1065.41
702.87	1070.33
703.21	1072.43
703.55	1070.33
703.88	1077.58
704.22	1086.24
704.55	1076.65
704.89	1076.41
705.23	1071.26
705.56	1073.60
705.90	1062.37
706.23	1055.82
706.57	1062.37
706.91	1069.16
707.24	1061.20
707.58	1067.28
707.91	1085.07
708.25	1075.48
708.58	1074.77
708.92	1086.24
709.26	1083.43
709.59	1075.71
709.93	1082.26
710.26	1077.35
710.60	1073.37
710.93	1074.77
711.27	1075.01
711.60	1070.80
711.94	1075.94
712.27	1091.16
712.61	1090.92
712.94	1104.97
713.28	1106.37
713.61	1093.26
713.95	1075.94
714.28	1079.69
714.62	1055.82
714.95	1057.92
715.29	1067.52
715.62	1068.69
715.96	1069.16
716.29	1080.86
716.63	1082.26
716.96	1079.46
717.29	1087.88
717.63	1080.63
717.96	1076.88
718.30	1080.39
718.63	1080.16
718.97	1075.94
719.30	1088.58
719.63	1094.90
719.97	1093.73
720.30	1098.41
720.64	1104.50
720.97	1096.78
721.30	1096.54
721.64	1097.95
721.97	1090.92
722.31	1087.18
722.64	1085.31
722.97	1079.69
723.31	1076.18
723.64	1086.01
723.97	1078.75
724.31	1074.31
724.64	1069.39
724.98	1072.67
725.31	1063.31
725.64	1063.31
725.98	1069.86
726.31	1089.75
726.64	1079.22
726.97	1081.33
727.31	1086.01
727.64	1094.67
727.97	1075.71
728.31	1083.43
728.64	1090.92
728.97	1092.33
729.31	1090.46
729.64	1111.05
729.97	1102.39
730.30	1103.09
730.64	1100.99
730.97	1090.92
731.30	1075.71
731.63	1075.71
731.97	1065.65
732.30	1066.82
732.63	1062.14
732.96	1068.69
733.30	1072.90
733.63	1083.43
733.96	1079.22
734.29	1082.26
734.63	1074.07
734.96	1077.58
735.29	1056.28
735.62	1059.56
735.95	1075.71
736.29	1080.39
736.62	1082.73
736.95	1092.33
737.28	1085.77
737.61	1077.82
737.94	1079.92
738.28	1081.09
738.61	1079.69
738.94	1086.24
739.27	1077.11
739.60	1076.18
739.93	1067.28
740.27	1072.90
740.60	1076.65
740.93	1086.48
741.26	1087.88
741.59	1084.60
741.92	1083.43
742.25	1085.31
742.58	1078.05
742.91	1080.39
743.25	1094.20
743.58	1105.67
743.91	1100.29
744.24	1097.71
744.57	1091.39
744.90	1092.80
745.23	1082.03
745.56	1079.46
745.89	1095.84
746.22	1092.09
746.55	1087.18
746.88	1085.07
747.21	1087.65
747.54	1076.65
747.87	1082.73
748.20	1082.26
748.53	1081.56
748.87	1085.77
749.20	1088.12
749.53	1089.75
749.86	1091.86
750.19	1091.63
750.52	1084.37
750.85	1080.16
751.18	1078.52
751.51	1080.16
751.84	1082.50
752.16	1078.52
752.49	1085.07
752.82	1081.80
753.15	1075.94
753.48	1081.09
753.81	1091.86
754.14	1093.26
754.47	1096.78
754.80	1093.73
755.13	1090.22
755.46	1082.73
755.79	1076.18
756.12	1075.48
756.45	1078.05
756.78	1083.67
757.11	1083.20
757.43	1086.94
757.76	1080.39
758.09	1089.29
758.42	1089.05
758.75	1084.60
759.08	1082.73
759.41	1086.01
759.74	1074.54
760.07	1072.67
760.39	1081.56
760.72	1082.50
761.05	1083.90
761.38	1086.94
761.71	1088.35
762.04	1086.01
762.36	1079.46
762.69	1089.75
763.02	1092.09
763.35	1090.92
763.68	1086.01
764.01	1089.99
764.33	1074.31
764.66	1072.67
764.99	1067.99
765.32	1073.14
765.65	1074.54
765.97	1084.14
766.30	1072.43
766.63	1071.50
766.96	1076.65
767.28	1077.11
767.61	1067.05
767.94	1083.67
768.27	1087.18
768.59	1083.90
768.92	1090.46
769.25	1093.73
769.58	1087.41
769.90	1078.99
770.23	1072.67
770.56	1072.43
770.89	1074.07
771.21	1078.52
771.54	1082.97
771.87	1084.84
772.19	1073.37
772.52	1066.11
772.85	1061.67
773.17	1064.01
773.50	1064.24
773.83	1076.18
774.15	1095.14
774.48	1099.82
774.81	1111.05
775.13	1117.37
775.46	1113.39
775.79	1101.46
776.11	1097.48
776.44	1089.52
776.77	1091.16
777.09	1087.65
777.42	1089.75
777.74	1089.52
778.07	1086.94
778.40	1075.71
778.72	1078.52
779.05	1079.69
779.37	1075.48
779.70	1072.67
780.03	1080.39
780.35	1077.58
780.68	1082.97
781.00	1080.86
781.33	1084.60
781.65	1086.94
781.98	1083.43
782.31	1080.16
782.63	1090.92
782.96	1084.84
783.28	1079.92
783.61	1089.52
783.93	1076.41
784.26	1074.31
784.58	1076.65
784.91	1086.48
785.23	1084.84
785.56	1095.14
785.88	1100.75
786.21	1104.03
786.53	1094.90
786.86	1078.75
787.18	1073.14
787.51	1070.33
787.83	1074.54
788.16	1083.67
788.48	1089.75
788.81	1090.69
789.13	1085.54
789.46	1078.99
789.78	1067.52
790.10	1075.71
790.43	1074.31
790.75	1072.90
791.08	1074.54
791.40	1080.16
791.73	1078.05
792.05	1088.35
792.37	1090.22
792.70	1083.67
793.02	1078.52
793.35	1080.63
793.67	1078.05
793.99	1070.33
794.32	1071.97
794.64	1070.56
794.96	1064.71
795.29	1060.03
795.61	1064.94
795.93	1058.86
796.26	1062.84
796.58	1061.67
796.91	1058.86
797.23	1060.26
797.55	1075.71
797.87	1083.67
798.20	1082.73
798.52	1086.71
798.84	1079.22
799.17	1072.20
799.49	1072.20
799.81	1074.77
800.14	1073.84
800.46	1082.50
800.78	1091.39
801.10	1081.56
801.43	1084.14
801.75	1092.09
802.07	1085.07
802.40	1069.86
802.72	1070.33
803.04	1067.52
803.36	1054.88
803.69	1060.96
804.01	1061.67
804.33	1063.07
804.65	1060.96
804.97	1061.20
805.30	1055.35
805.62	1060.73
805.94	1059.33
806.26	1060.96
806.58	1065.18
806.91	1071.50
807.23	1078.28
807.55	1078.99
807.87	1090.69
808.19	1091.63
808.52	1085.77
808.84	1077.35
809.16	1077.58
809.48	1072.90
809.80	1078.99
810.12	1084.37
810.44	1087.18
810.77	1082.73
811.09	1079.46
811.41	1074.07
811.73	1081.09
812.05	1075.94
812.37	1082.97
812.69	1078.99
813.01	1075.94
813.33	1065.41
813.66	1074.07
813.98	1062.14
814.30	1069.16
814.62	1064.01
814.94	1068.45
815.26	1071.50
815.58	1078.99
815.90	1075.71
816.22	1087.41
816.54	1081.80
816.86	1080.63
817.18	1088.58
817.50	1090.69
817.82	1076.65
818.14	1074.77
818.46	1069.62
818.78	1056.05
819.10	1049.03
819.42	1050.43
819.74	1053.48
820.06	1060.50
820.38	1065.41
820.70	1067.05
821.02	1075.94
821.34	1075.71
821.66	1073.60
821.98	1078.52
822.30	1085.77
822.62	1084.84
822.94	1089.52
823.26	1088.82
823.58	1086.01
823.90	1078.99
824.22	1084.14
824.54	1080.39
824.86	1083.20
825.18	1082.50
825.50	1087.41
825.81	1086.71
826.13	1096.54
826.45	1087.41
826.77	1088.58
827.09	1074.31
827.41	1066.35
827.73	1065.18
828.05	1060.96
828.36	1053.94
828.68	1058.16
829.00	1066.82
829.32	1059.79
829.64	1068.92
829.96	1079.22
830.28	1086.71
830.59	1081.33
830.91	1090.46
831.23	1085.31
831.55	1076.41
831.87	1075.94
832.19	1075.94
832.50	1059.79
832.82	1058.39
833.14	1068.69
833.46	1061.43
833.78	1059.79
834.09	1071.73
834.41	1071.50
834.73	1071.03
835.05	1077.82
835.36	1079.69
835.68	1083.20
836.00	1081.56
836.32	1081.33
836.63	1086.71
836.95	1087.65
837.27	1081.56
837.59	1087.41
837.90	1083.90
838.22	1075.24
838.54	1076.65
838.85	1079.22
839.17	1083.67
839.49	1084.84
839.80	1091.16
840.12	1089.99
840.44	1080.63
840.76	1080.86
841.07	1088.12
841.39	1087.65
841.71	1083.67
842.02	1084.84
842.34	1075.24
842.65	1061.20
842.97	1056.75
843.29	1054.65
843.60	1061.67
843.92	1070.09
844.24	1074.31
844.55	1073.37
844.87	1080.63
845.18	1082.26
845.50	1083.43
845.82	1085.77
846.13	1085.77
846.45	1087.41
846.76	1087.65
847.08	1087.88
847.40	1083.43
847.71	1089.52
848.03	1083.43
848.34	1080.39
848.66	1071.73
848.97	1074.07
849.29	1073.14
849.60	1075.94
849.92	1072.67
850.24	1080.16
850.55	1077.11
850.87	1081.09
851.18	1081.33
851.50	1095.14
851.81	1093.03
852.13	1101.22
852.44	1097.01
852.76	1097.95
853.07	1086.71
853.39	1079.22
853.70	1070.80
854.01	1064.24
854.33	1066.11
854.64	1067.99
854.96	1067.99
855.27	1072.20
855.59	1077.82
855.90	1071.26
856.22	1069.16
856.53	1075.94
856.84	1072.67
857.16	1071.97
857.47	1078.28
857.79	1071.97
858.10	1070.80
858.41	1070.80
858.73	1071.73
859.04	1067.05
859.36	1076.88
859.67	1076.41
859.98	1075.01
860.30	1078.28
860.61	1076.18
860.92	1076.88
861.24	1084.14
861.55	1098.41
861.87	1099.82
862.18	1101.46
862.49	1101.46
862.81	1101.92
863.12	1097.01
863.43	1102.39
863.74	1097.71
864.06	1090.22
864.37	1082.26
864.68	1083.20
865.00	1077.11
865.31	1081.09
865.62	1083.20
865.94	1093.50
866.25	1080.86
866.56	1073.60
866.87	1076.65
867.19	1071.50
867.50	1069.16
867.81	1076.18
868.12	1085.07
868.44	1085.77
868.75	1086.94
869.06	1070.56
869.37	1065.88
869.68	1064.48
870.00	1063.31
870.31	1070.33
870.62	1087.65
870.93	1098.18
871.24	1098.88
871.56	1108.71
871.87	1108.71
872.18	1092.56
872.49	1089.29
872.80	1089.29
873.12	1088.12
873.43	1077.58
873.74	1090.22
874.05	1084.84
874.36	1075.94
874.67	1066.82
874.98	1078.99
875.29	1082.73
875.61	1085.07
875.92	1088.58
876.23	1083.43
876.54	1084.60
876.85	1075.94
877.16	1078.99
877.47	1073.60
877.78	1076.41
878.09	1082.03
878.40	1080.86
878.72	1086.48
879.03	1093.50
879.34	1093.73
879.65	1081.80
879.96	1090.22
880.27	1086.71
880.58	1075.48
880.89	1078.05
881.20	1078.05
881.51	1067.75
881.82	1063.07
882.13	1079.92
882.44	1079.22
882.75	1084.37
883.06	1082.50
883.37	1079.69
883.68	1080.16
883.99	1078.52
884.30	1071.73
884.61	1074.07
884.92	1075.01
885.23	1070.56
885.54	1070.56
885.85	1075.48
886.16	1086.94
886.47	1095.60
886.78	1093.73
887.08	1089.52
887.39	1091.16
887.70	1082.03
888.01	1075.48
888.32	1065.65
888.63	1071.50
888.94	1071.26
889.25	1073.84
889.56	1080.39
889.87	1088.35
890.17	1089.99
890.48	1083.67
890.79	1075.24
891.10	1064.48
891.41	1068.45
891.72	1076.65
892.03	1083.20
892.34	1088.58
892.64	1092.33
892.95	1092.09
893.26	1089.75
893.57	1084.60
893.88	1089.52
894.18	1097.24
894.49	1093.97
894.80	1089.99
895.11	1093.03
895.42	1096.78
895.72	1089.29
896.03	1087.88
896.34	1091.16
896.65	1089.75
896.96	1079.22
897.26	1077.58
897.57	1076.18
897.88	1075.94
898.19	1073.84
898.49	1074.77
898.80	1069.16
899.11	1071.73
899.41	1071.26
899.72	1073.14
900.03	1083.43
900.34	1090.69
900.64	1091.39
900.95	1089.29
901.26	1089.05
901.56	1076.41
901.87	1082.03
902.18	1082.50
902.48	1081.80
902.79	1079.46
903.10	1080.39
903.40	1075.48
903.71	1073.14
904.02	1080.86
904.32	1079.46
904.63	1090.46
904.94	1089.75
905.24	1093.50
905.55	1088.58
905.85	1086.24
906.16	1090.46
906.47	1089.29
906.77	1082.50
907.08	1076.18
907.38	1088.58
907.69	1082.50
908.00	1082.50
908.30	1093.03
908.61	1088.58
908.91	1076.41
909.22	1071.03
909.52	1071.97
909.83	1066.58
910.14	1072.43
910.44	1075.24
910.75	1077.11
911.05	1072.90
911.36	1070.56
911.66	1074.07
911.97	1082.73
912.27	1089.75
912.58	1098.18
912.88	1096.07
913.19	1094.43
913.49	1090.22
913.80	1081.80
914.10	1079.22
914.41	1079.92
914.71	1081.80
915.01	1088.58
915.32	1087.41
915.62	1085.31
915.93	1089.29
916.23	1081.33
916.54	1078.99
916.84	1073.60
917.15	1077.58
917.45	1080.86
917.75	1085.31
918.06	1076.18
918.36	1084.37
918.67	1083.43
918.97	1078.52
919.27	1085.31
919.58	1094.43
919.88	1096.54
920.18	1089.05
920.49	1093.97
920.79	1087.88
921.10	1082.50
921.40	1078.75
921.70	1086.01
922.01	1081.33
922.31	1079.69
922.61	1079.69
922.92	1075.24
923.22	1070.33
923.52	1064.24
923.82	1070.09
924.13	1066.82
924.43	1067.05
924.73	1063.31
925.04	1072.43
925.34	1062.84
925.64	1061.43
925.94	1058.86
926.25	1058.86
926.55	1055.11
926.85	1066.82
927.15	1067.05
927.46	1075.48
927.76	1084.14
928.06	1090.22
928.36	1093.97
928.67	1100.29
928.97	1108.95
929.27	1107.54
929.57	1095.14
929.87	1092.09
930.18	1093.73
930.48	1088.82
930.78	1085.77
931.08	1094.20
931.38	1093.50
931.69	1090.46
931.99	1089.99
932.29	1091.86
932.59	1092.80
932.89	1078.28
933.19	1076.41
933.49	1064.94
933.80	1066.82
934.10	1075.71
934.40	1081.56
934.70	1076.65
935.00	1087.18
935.30	1084.14
935.60	1067.28
935.90	1069.39
936.20	1079.69
936.50	1075.24
936.81	1075.24
937.11	1080.63
937.41	1076.65
937.71	1075.01
938.01	1070.80
938.31	1078.05
938.61	1076.41
938.91	1075.71
939.21	1074.31
939.51	1085.31
939.81	1075.71
940.11	1069.62
940.41	1075.48
940.71	1078.52
941.01	1071.73
941.31	1073.60
941.61	1091.16
941.91	1080.63
942.21	1075.24
942.51	1069.86
942.81	1071.03
943.11	1064.94
943.41	1068.92
943.71	1077.11
944.01	1085.77
944.31	1084.37
944.61	1081.80
944.90	1091.16
945.20	1092.80
945.50	1092.56
945.80	1093.26
946.10	1094.90
946.40	1085.31
946.70	1082.03
947.00	1081.09
947.30	1083.90
947.60	1079.92
947.89	1082.73
948.19	1073.14
948.49	1069.39
948.79	1064.48
949.09	1071.03
949.39	1083.43
949.69	1080.86
949.98	1086.71
950.28	1087.65
950.58	1087.41
950.88	1086.71
951.18	1094.90
951.48	1091.63
951.77	1094.90
952.07	1083.90
952.37	1075.71
952.67	1074.77
952.97	1076.88
953.26	1073.14
953.56	1089.29
953.86	1086.01
954.16	1089.52
954.45	1085.07
954.75	1085.54
955.05	1075.48
955.35	1075.24
955.64	1082.50
955.94	1084.37
956.24	1095.60
956.54	1089.75
956.83	1082.26
957.13	1072.90
957.43	1066.82
957.72	1056.75
958.02	1067.28
958.32	1077.58
958.61	1076.65
958.91	1085.31
959.21	1089.75
959.50	1085.07
959.80	1083.20
960.10	1085.31
960.39	1087.41
960.69	1089.29
960.99	1098.88
961.28	1105.20
961.58	1110.12
961.87	1102.63
962.17	1108.24
962.47	1105.20
962.76	1100.29
963.06	1094.20
963.36	1100.05
963.65	1095.84
963.95	1091.39
964.24	1092.80
964.54	1095.37
964.83	1094.67
965.13	1095.14
965.42	1091.86
965.72	1092.33
966.02	1091.39
966.31	1088.35
966.61	1081.56
966.90	1082.26
967.20	1076.65
967.49	1070.56
967.79	1071.50
968.08	1063.31
968.38	1060.73
968.67	1062.60
968.97	1064.24
969.26	1065.88
969.56	1068.22
969.85	1071.97
970.15	1067.75
970.44	1061.90
970.74	1063.31
971.03	1075.01
971.32	1082.73
971.62	1091.86
971.91	1098.41
972.21	1098.88
972.50	1087.65
972.80	1077.82
973.09	1076.65
973.38	1076.18
973.68	1073.37
973.97	1072.43
974.27	1076.41
974.56	1078.99
974.85	1087.88
975.15	1085.77
975.44	1092.09
975.73	1093.03
976.03	1085.77
976.32	1076.65
976.61	1075.71
976.91	1067.99
977.20	1064.94
977.49	1064.24
977.79	1071.50
978.08	1072.20
978.37	1077.35
978.67	1078.99
978.96	1095.14
979.25	1082.97
979.55	1080.16
979.84	1079.92
980.13	1088.82
980.42	1072.20
980.72	1087.65
981.01	1088.82
981.30	1093.03
981.59	1079.92
981.89	1081.80
982.18	1074.31
982.47	1079.69
982.76	1083.20
983.06	1081.80
983.35	1082.50
983.64	1077.58
983.93	1074.54
984.22	1064.71
984.52	1062.14
984.81	1062.14
985.10	1070.56
985.39	1068.45
985.68	1076.18
985.97	1077.11
986.27	1078.05
986.56	1075.01
986.85	1074.54
987.14	1076.65
987.43	1088.58
987.72	1085.54
988.01	1074.07
988.31	1076.88
988.60	1076.88
988.89	1071.03
989.18	1075.24
989.47	1086.24
989.76	1085.54
990.05	1082.50
990.34	1093.50
990.63	1099.82
990.92	1094.20
991.21	1095.14
991.51	1090.22
991.80	1082.97
992.09	1072.67
992.38	1066.82
992.67	1063.77
992.96	1062.84
993.25	1054.88
993.54	1056.28
993.83	1063.07
994.12	1056.52
994.41	1063.31
994.70	1070.33
994.99	1067.99
995.28	1064.71
995.57	1067.52
995.86	1067.52
996.15	1065.65
996.44	1076.41
996.73	1079.46
997.02	1086.24
997.31	1080.86
997.59	1075.71
997.88	1067.99
998.17	1076.41
998.46	1078.75
998.75	1084.14
999.04	1089.05
999.33	1096.54
999.62	1084.60
999.91	1090.22
1000.20	1090.92
1000.49	1091.63
1000.77	1081.56
1001.06	1093.03
1001.35	1090.22
1001.64	1087.88
1001.93	1084.60
1002.22	1095.84
1002.51	1089.05
1002.79	1083.90
1003.08	1079.46
1003.37	1078.99
1003.66	1062.84
1003.95	1056.28
1004.23	1059.33
1004.52	1054.41
1004.81	1053.01
1005.10	1058.39
1005.39	1066.11
1005.67	1060.73
1005.96	1064.94
1006.25	1069.39
1006.54	1063.31
1006.83	1064.24
1007.11	1058.62
1007.40	1061.67
1007.69	1061.20
1007.97	1067.05
1008.26	1071.26
1008.55	1083.90
1008.84	1084.14
1009.12	1079.92
1009.41	1086.94
1009.70	1088.35
1009.98	1074.31
1010.27	1073.37
1010.56	1081.09
1010.85	1077.58
1011.13	1072.67
1011.42	1080.63
1011.71	1083.20
1011.99	1079.92
1012.28	1080.86
1012.56	1079.22
1012.85	1076.41
1013.14	1072.20
1013.42	1064.94
1013.71	1061.90
1014.00	1057.69
1014.28	1063.54
1014.57	1068.45
1014.85	1072.20
1015.14	1082.50
1015.43	1089.52
1015.71	1083.67
1016.00	1089.29
1016.28	1096.54
1016.57	1088.12
1016.85	1087.41
1017.14	1086.48
1017.43	1080.86
1017.71	1077.11
1018.00	1068.69
1018.28	1067.99
1018.57	1068.92
1018.85	1067.05
1019.14	1067.28
1019.42	1077.11
1019.71	1071.50
1019.99	1076.65
1020.28	1072.20
1020.56	1081.56
1020.85	1084.37
1021.13	1089.52
1021.42	1092.56
1021.70	1101.22
1021.99	1102.39
1022.27	1088.58
1022.55	1139.84
1022.84	1029.84
>>>>>End Processed Spectral Data<<<<<
