SpectraSuite Data File
++++++++++++++++++++++++++++++++++++
Date: Mon Aug 26 10:24:51 PDT 2019
User: corrico
Dark Spectrum Present: No
Reference Spectrum Present: No
Number of Sampled Component Spectra: 1
Spectrometers: USB2+H06089
Integration Time (usec): 10000 (USB2+H06089)
Spectra Averaged: 2 (USB2+H06089)
Boxcar Smoothing: 2 (USB2+H06089)
Correct for Electrical Dark: No (USB2+H06089)
Strobe/Lamp Enabled: No (USB2+H06089)
Correct for Detector Non-linearity: No (USB2+H06089)
Correct for Stray Light: No (USB2+H06089)
Number of Pixels in Processed Spectrum: 2048
>>>>>Begin Processed Spectral Data<<<<<
339.70	1016.96
340.07	1016.96
340.45	979.51
340.82	964.07
341.19	943.70
341.57	924.04
341.94	923.81
342.31	915.85
342.69	916.09
343.06	918.43
343.43	917.49
343.81	909.06
344.18	914.92
344.55	921.00
344.93	923.34
345.30	932.70
345.67	950.49
346.04	969.22
346.42	961.96
346.79	962.90
347.16	961.96
347.54	961.96
347.91	951.43
348.28	975.07
348.65	991.68
349.03	1009.47
349.40	1019.77
349.77	1032.64
350.14	1031.71
350.52	1042.01
350.89	1052.30
351.26	1063.54
351.63	1072.20
352.01	1073.84
352.38	1064.71
352.75	1059.09
353.12	1062.37
353.50	1068.92
353.87	1085.77
354.24	1099.35
354.61	1106.14
354.98	1101.22
355.36	1103.09
355.73	1095.37
356.10	1095.14
356.47	1102.39
356.84	1112.46
357.22	1122.52
357.59	1129.07
357.96	1130.71
358.33	1130.01
358.70	1125.56
359.08	1108.71
359.45	1098.88
359.82	1095.60
360.19	1086.71
360.56	1091.63
360.94	1104.97
361.31	1110.12
361.68	1111.05
362.05	1105.90
362.42	1103.09
362.79	1093.73
363.16	1102.39
363.54	1106.37
363.91	1107.78
364.28	1103.56
364.65	1104.97
365.02	1098.65
365.39	1094.67
365.76	1094.20
366.14	1085.07
366.51	1081.09
366.88	1068.69
367.25	1071.26
367.62	1071.50
367.99	1082.50
368.36	1088.35
368.73	1086.48
369.10	1075.71
369.48	1083.20
369.85	1078.75
370.22	1073.84
370.59	1073.60
370.96	1078.05
371.33	1075.48
371.70	1088.82
372.07	1085.54
372.44	1086.71
372.81	1091.16
373.18	1081.56
373.55	1068.22
373.93	1072.20
374.30	1078.28
374.67	1083.43
375.04	1099.58
375.41	1099.12
375.78	1104.26
376.15	1098.65
376.52	1092.80
376.89	1077.58
377.26	1080.39
377.63	1077.82
378.00	1097.48
378.37	1104.26
378.74	1107.78
379.11	1108.48
379.48	1110.82
379.85	1099.12
380.22	1096.07
380.59	1102.16
380.96	1097.24
381.33	1096.78
381.70	1096.31
382.07	1086.71
382.44	1080.16
382.81	1082.26
383.18	1086.94
383.55	1083.67
383.92	1091.16
384.29	1088.35
384.66	1091.39
385.03	1088.12
385.40	1088.82
385.77	1085.77
386.14	1095.37
386.51	1099.58
386.88	1093.97
387.25	1099.35
387.62	1106.61
387.99	1101.22
388.36	1095.84
388.73	1102.63
389.10	1099.58
389.46	1102.86
389.83	1111.99
390.20	1116.90
390.57	1119.48
390.94	1125.80
391.31	1123.69
391.68	1119.48
392.05	1115.27
392.42	1111.05
392.79	1103.09
393.16	1100.99
393.53	1097.71
393.89	1098.88
394.26	1098.65
394.63	1097.24
395.00	1097.01
395.37	1106.37
395.74	1111.05
396.11	1119.01
396.48	1133.76
396.84	1136.10
397.21	1123.69
397.58	1126.27
397.95	1121.12
398.32	1112.22
398.69	1115.50
399.06	1124.86
399.42	1120.41
399.79	1121.12
400.16	1132.12
400.53	1130.71
400.90	1133.99
401.27	1147.10
401.64	1153.42
402.00	1162.08
402.37	1171.20
402.74	1184.55
403.11	1189.23
403.48	1192.97
403.84	1198.59
404.21	1199.76
404.58	1200.23
404.95	1213.33
405.32	1229.25
405.68	1224.57
406.05	1229.02
406.42	1244.46
406.79	1258.27
407.16	1269.74
407.52	1292.21
407.89	1302.04
408.26	1314.91
408.63	1332.00
408.99	1351.43
409.36	1367.34
409.73	1407.36
410.10	1445.05
410.47	1477.11
410.83	1516.90
411.20	1561.61
411.57	1593.67
411.94	1633.46
412.30	1667.40
412.67	1705.55
413.04	1745.10
413.40	1801.98
413.77	1855.11
414.14	1912.45
414.51	1989.69
414.87	2076.99
415.24	2148.38
415.61	2237.32
415.97	2329.30
416.34	2402.79
416.71	2489.16
417.08	2580.44
417.44	2681.55
417.81	2791.32
418.18	2925.20
418.54	3065.17
418.91	3217.53
419.28	3369.20
419.64	3517.36
420.01	3680.02
420.38	3841.29
420.74	4023.61
421.11	4218.58
421.48	4440.70
421.84	4658.60
422.21	4889.15
422.58	5144.50
422.94	5404.06
423.31	5673.22
423.68	5940.51
424.04	6244.55
424.41	6536.41
424.77	6802.30
425.14	7082.46
425.51	7431.20
425.87	7819.50
426.24	8172.68
426.61	8617.85
426.97	9117.79
427.34	9564.13
427.70	9999.24
428.07	10481.39
428.44	11003.56
428.80	11493.20
429.17	12027.54
429.53	12580.15
429.90	13234.09
430.27	13782.95
430.63	14341.40
431.00	15001.43
431.36	15764.91
431.73	16361.75
432.09	17068.12
432.46	17822.95
432.83	18495.62
433.19	19036.98
433.56	19755.53
433.92	20441.07
434.29	21008.41
434.65	21700.28
435.02	22353.05
435.38	22965.34
435.75	23480.25
436.11	24163.92
436.48	24584.99
436.84	25051.69
437.21	25494.99
437.57	25955.14
437.94	26319.56
438.30	26802.88
438.67	27123.77
439.03	27333.95
439.40	27555.60
439.76	27555.60
440.13	27446.53
440.49	27413.99
440.86	27147.41
441.22	26814.82
441.59	26464.44
441.95	26056.72
442.32	25504.12
442.68	25139.23
443.05	24638.59
443.41	24174.22
443.78	23542.51
444.14	22989.68
444.51	22368.03
444.87	21869.03
445.24	21343.81
445.60	20928.13
445.96	20390.98
446.33	19925.68
446.69	19356.46
447.06	18838.74
447.42	18262.03
447.79	17739.62
448.15	17279.00
448.51	16821.43
448.88	16376.73
449.24	15964.79
449.61	15717.17
449.97	15320.68
450.33	14936.36
450.70	14476.92
451.06	14130.05
451.43	13647.20
451.79	13246.96
452.15	12889.10
452.52	12601.91
452.88	12302.79
453.24	12006.48
453.61	11760.02
453.97	11494.84
454.34	11197.59
454.70	10932.88
455.06	10668.16
455.43	10329.02
455.79	9950.32
456.15	9655.18
456.52	9287.25
456.88	8999.13
457.24	8729.73
457.61	8537.34
457.97	8298.37
458.33	8081.40
458.70	7837.28
459.06	7564.61
459.42	7324.94
459.79	7081.76
460.15	6858.00
460.51	6627.93
460.88	6419.15
461.24	6170.35
461.60	5988.26
461.96	5819.51
462.33	5654.03
462.69	5528.58
463.05	5411.08
463.42	5254.97
463.78	5074.98
464.14	4940.87
464.50	4800.67
464.87	4689.73
465.23	4580.19
465.59	4516.30
465.95	4417.06
466.32	4323.44
466.68	4202.67
467.04	4112.32
467.40	3997.63
467.77	3904.48
468.13	3824.20
468.49	3761.94
468.85	3697.81
469.22	3645.85
469.58	3577.74
469.94	3516.19
470.30	3456.27
470.66	3387.93
471.03	3312.56
471.39	3267.62
471.75	3203.02
472.11	3143.34
472.47	3096.06
472.84	3050.42
473.20	2994.95
473.56	2942.99
473.92	2890.09
474.28	2828.77
474.65	2792.03
475.01	2744.51
475.37	2698.64
475.73	2652.53
476.09	2620.93
476.45	2575.99
476.81	2524.03
477.18	2479.10
477.54	2457.09
477.90	2417.07
478.26	2382.90
478.62	2357.39
478.98	2331.64
479.34	2295.36
479.71	2264.23
480.07	2245.98
480.43	2229.13
480.79	2199.40
481.15	2182.78
481.51	2166.40
481.87	2127.31
482.23	2088.93
482.59	2064.82
482.96	2026.90
483.32	1992.50
483.68	1972.14
484.04	1954.58
484.40	1948.96
484.76	1922.28
485.12	1912.22
485.48	1896.54
485.84	1865.17
486.20	1834.28
486.56	1826.09
486.92	1801.51
487.28	1794.49
487.64	1786.06
488.00	1765.70
488.37	1749.08
488.73	1730.12
489.09	1720.53
489.45	1709.06
489.81	1717.49
490.17	1708.83
490.53	1690.10
490.89	1659.21
491.25	1636.97
491.61	1599.52
491.97	1575.65
492.33	1563.95
492.69	1553.65
493.05	1534.22
493.41	1525.09
493.77	1516.43
494.13	1504.96
494.49	1484.13
494.85	1485.30
495.21	1481.79
495.57	1469.39
495.93	1462.83
496.29	1460.73
496.64	1448.09
497.00	1435.45
497.36	1429.83
497.72	1416.96
498.08	1399.41
498.44	1394.96
498.80	1389.58
499.16	1377.41
499.52	1361.96
499.88	1356.34
500.24	1346.51
500.60	1329.42
500.96	1317.96
501.32	1318.19
501.68	1317.02
502.03	1304.38
502.39	1298.30
502.75	1285.19
503.11	1291.98
503.47	1286.36
503.83	1282.15
504.19	1270.91
504.55	1272.55
504.91	1260.14
505.26	1262.02
505.62	1261.08
505.98	1260.85
506.34	1259.91
506.70	1246.57
507.06	1233.70
507.42	1228.08
507.78	1228.55
508.13	1218.01
508.49	1220.59
508.85	1210.29
509.21	1208.89
509.57	1206.78
509.93	1213.10
510.28	1205.38
510.64	1204.21
511.00	1201.40
511.36	1202.57
511.72	1198.59
512.07	1199.06
512.43	1200.23
512.79	1200.23
513.15	1184.31
513.51	1164.65
513.86	1159.27
514.22	1163.71
514.58	1157.16
514.94	1160.20
515.30	1178.23
515.65	1185.48
516.01	1171.20
516.37	1170.97
516.73	1165.12
517.08	1165.12
517.44	1158.10
517.80	1165.82
518.16	1159.50
518.51	1161.14
518.87	1152.25
519.23	1156.93
519.59	1156.46
519.94	1157.39
520.30	1154.82
520.66	1146.39
521.01	1139.37
521.37	1127.90
521.73	1126.97
522.09	1133.76
522.44	1143.12
522.80	1134.93
523.16	1145.46
523.51	1145.22
523.87	1137.50
524.23	1126.73
524.58	1129.07
524.94	1119.71
525.30	1118.78
525.65	1126.50
526.01	1134.69
526.37	1148.03
526.72	1146.63
527.08	1143.12
527.44	1137.73
527.79	1126.03
528.15	1104.50
528.51	1117.37
528.86	1123.46
529.22	1121.82
529.58	1126.03
529.93	1141.48
530.29	1126.73
530.65	1121.35
531.00	1120.88
531.36	1119.48
531.71	1121.58
532.07	1124.86
532.43	1120.41
532.78	1117.84
533.14	1119.95
533.49	1111.75
533.85	1113.39
534.21	1129.07
534.56	1137.50
534.92	1132.82
535.27	1132.12
535.63	1132.12
535.98	1117.14
536.34	1109.41
536.69	1116.67
537.05	1113.39
537.41	1112.92
537.76	1113.86
538.12	1113.86
538.47	1112.92
538.83	1118.07
539.18	1118.78
539.54	1121.12
539.89	1121.35
540.25	1120.18
540.60	1117.14
540.96	1119.24
541.31	1116.44
541.67	1115.73
542.02	1114.56
542.38	1122.99
542.73	1114.80
543.09	1105.44
543.44	1099.82
543.80	1111.75
544.15	1098.41
544.51	1093.26
544.86	1107.78
545.22	1106.37
545.57	1103.56
545.93	1108.71
546.28	1114.56
546.64	1115.03
546.99	1120.18
547.35	1110.82
547.70	1113.16
548.05	1105.90
548.41	1092.80
548.76	1081.80
549.12	1080.86
549.47	1073.60
549.83	1076.88
550.18	1094.67
550.53	1105.44
550.89	1101.46
551.24	1106.84
551.60	1112.69
551.95	1098.18
552.30	1104.03
552.66	1106.61
553.01	1101.46
553.37	1102.39
553.72	1119.01
554.07	1109.18
554.43	1119.01
554.78	1120.41
555.13	1107.54
555.49	1095.60
555.84	1094.67
556.19	1084.37
556.55	1084.84
556.90	1100.29
557.26	1101.46
557.61	1108.24
557.96	1115.97
558.32	1120.18
558.67	1108.48
559.02	1111.29
559.37	1108.48
559.73	1103.56
560.08	1108.71
560.43	1116.90
560.79	1110.58
561.14	1113.86
561.49	1114.80
561.85	1106.84
562.20	1101.69
562.55	1099.58
562.90	1097.95
563.26	1086.01
563.61	1085.54
563.96	1082.03
564.32	1082.97
564.67	1080.63
565.02	1086.94
565.37	1090.46
565.73	1093.97
566.08	1099.12
566.43	1097.71
566.78	1096.07
567.14	1085.31
567.49	1090.69
567.84	1089.05
568.19	1094.90
568.54	1099.12
568.90	1109.41
569.25	1101.92
569.60	1112.22
569.95	1099.58
570.31	1097.24
570.66	1086.01
571.01	1089.99
571.36	1087.65
571.71	1092.80
572.06	1094.90
572.42	1099.12
572.77	1102.39
573.12	1098.41
573.47	1094.67
573.82	1092.33
574.18	1095.37
574.53	1094.20
574.88	1089.99
575.23	1091.39
575.58	1090.46
575.93	1088.82
576.28	1089.29
576.64	1087.41
576.99	1083.90
577.34	1088.58
577.69	1093.50
578.04	1084.84
578.39	1082.50
578.74	1096.78
579.09	1102.86
579.44	1102.39
579.80	1107.78
580.15	1114.56
580.50	1115.27
580.85	1109.18
581.20	1105.44
581.55	1109.65
581.90	1107.07
582.25	1106.84
582.60	1110.58
582.95	1108.01
583.30	1097.24
583.65	1094.67
584.00	1095.14
584.35	1090.46
584.71	1090.22
585.06	1090.92
585.41	1096.54
585.76	1093.03
586.11	1097.95
586.46	1100.05
586.81	1106.37
587.16	1095.60
587.51	1095.84
587.86	1093.03
588.21	1093.97
588.56	1096.31
588.91	1099.82
589.26	1092.80
589.61	1086.71
589.96	1082.03
590.31	1079.69
590.66	1084.84
591.01	1085.54
591.36	1092.09
591.71	1107.07
592.06	1111.05
592.41	1109.65
592.76	1112.69
593.10	1106.61
593.45	1092.33
593.80	1088.82
594.15	1083.67
594.50	1080.39
594.85	1082.97
595.20	1090.92
595.55	1088.35
595.90	1092.80
596.25	1095.60
596.60	1103.56
596.95	1098.18
597.30	1101.92
597.64	1146.39
597.99	1148.97
598.34	1143.82
598.69	1145.46
599.04	1140.31
599.39	1094.20
599.74	1085.07
600.09	1075.71
600.44	1074.54
600.78	1082.97
601.13	1079.22
601.48	1085.31
601.83	1094.67
602.18	1090.69
602.53	1082.97
602.88	1087.65
603.22	1080.39
603.57	1078.28
603.92	1079.92
604.27	1079.92
604.62	1074.54
604.97	1077.11
605.31	1075.94
605.66	1072.67
606.01	1078.99
606.36	1086.48
606.71	1094.20
607.05	1094.67
607.40	1099.35
607.75	1099.35
608.10	1094.90
608.44	1093.03
608.79	1095.14
609.14	1093.73
609.49	1093.26
609.84	1089.75
610.18	1085.77
610.53	1080.86
610.88	1081.33
611.23	1078.99
611.57	1085.77
611.92	1084.84
612.27	1077.11
612.62	1079.22
612.96	1080.63
613.31	1083.90
613.66	1097.24
614.00	1107.31
614.35	1106.61
614.70	1106.84
615.05	1096.78
615.39	1099.12
615.74	1095.14
616.09	1098.88
616.43	1087.18
616.78	1098.18
617.13	1082.50
617.47	1084.14
617.82	1075.01
618.17	1082.97
618.51	1085.77
618.86	1087.41
619.21	1092.80
619.55	1108.71
619.90	1102.86
620.25	1089.99
620.59	1091.39
620.94	1095.14
621.29	1086.48
621.63	1093.73
621.98	1098.18
622.32	1102.16
622.67	1089.05
623.02	1086.01
623.36	1083.90
623.71	1083.90
624.05	1082.26
624.40	1085.31
624.75	1083.90
625.09	1078.75
625.44	1073.60
625.78	1066.82
626.13	1074.54
626.48	1077.11
626.82	1086.24
627.17	1085.07
627.51	1086.71
627.86	1075.48
628.20	1081.56
628.55	1079.46
628.89	1083.67
629.24	1089.29
629.58	1093.03
629.93	1086.94
630.28	1084.14
630.62	1081.56
630.97	1080.86
631.31	1090.46
631.66	1093.97
632.00	1092.33
632.35	1106.37
632.69	1108.24
633.04	1091.63
633.38	1086.01
633.73	1098.18
634.07	1086.24
634.42	1092.80
634.76	1096.54
635.11	1097.95
635.45	1085.77
635.79	1082.26
636.14	1079.22
636.48	1083.67
636.83	1092.09
637.17	1098.41
637.52	1097.01
637.86	1094.20
638.21	1090.69
638.55	1082.97
638.89	1088.12
639.24	1097.71
639.58	1097.01
639.93	1102.63
640.27	1101.46
640.61	1082.50
640.96	1077.82
641.30	1073.37
641.65	1075.94
641.99	1076.18
642.33	1082.73
642.68	1076.88
643.02	1083.43
643.37	1079.22
643.71	1083.43
644.05	1102.63
644.40	1112.69
644.74	1105.90
645.08	1111.05
645.43	1109.41
645.77	1093.26
646.11	1096.78
646.46	1102.86
646.80	1100.99
647.14	1101.92
647.49	1097.01
647.83	1102.39
648.17	1107.31
648.52	1104.26
648.86	1101.69
649.20	1109.88
649.55	1091.63
649.89	1089.52
650.23	1090.69
650.57	1091.39
650.92	1088.35
651.26	1097.48
651.60	1092.33
651.95	1080.63
652.29	1076.41
652.63	1077.82
652.97	1075.01
653.32	1075.01
653.66	1090.22
654.00	1094.90
654.34	1092.09
654.69	1096.07
655.03	1093.03
655.37	1085.31
655.71	1081.80
656.05	1083.20
656.40	1080.86
656.74	1072.90
657.08	1076.88
657.42	1077.58
657.76	1067.52
658.11	1067.28
658.45	1072.90
658.79	1068.69
659.13	1075.48
659.47	1091.86
659.82	1098.18
660.16	1100.05
660.50	1105.90
660.84	1097.24
661.18	1090.22
661.52	1089.29
661.87	1086.48
662.21	1091.16
662.55	1089.52
662.89	1094.67
663.23	1091.16
663.57	1091.16
663.91	1083.67
664.25	1088.12
664.60	1085.77
664.94	1081.09
665.28	1089.29
665.62	1093.97
665.96	1091.39
666.30	1087.65
666.64	1081.09
666.98	1081.56
667.32	1072.90
667.66	1082.73
668.01	1087.18
668.35	1099.58
668.69	1099.35
669.03	1111.99
669.37	1103.09
669.71	1104.26
670.05	1096.31
670.39	1084.84
670.73	1075.71
671.07	1065.88
671.41	1062.14
671.75	1066.11
672.09	1072.20
672.43	1069.62
672.77	1073.14
673.11	1073.37
673.45	1073.37
673.79	1081.56
674.13	1087.18
674.47	1094.20
674.81	1090.92
675.15	1100.29
675.49	1097.71
675.83	1087.65
676.17	1096.78
676.51	1106.84
676.85	1095.84
677.19	1086.71
677.53	1087.88
677.87	1086.48
678.21	1081.56
678.55	1086.24
678.89	1085.77
679.23	1094.20
679.57	1087.18
679.90	1075.94
680.24	1072.90
680.58	1075.48
680.92	1069.62
681.26	1063.31
681.60	1068.92
681.94	1076.18
682.28	1079.92
682.62	1083.43
682.96	1090.46
683.29	1093.26
683.63	1094.43
683.97	1093.97
684.31	1097.01
684.65	1090.69
684.99	1092.56
685.33	1096.31
685.67	1087.18
686.00	1089.29
686.34	1095.84
686.68	1093.03
687.02	1086.71
687.36	1090.22
687.70	1074.07
688.03	1077.58
688.37	1076.88
688.71	1080.16
689.05	1090.69
689.39	1088.82
689.72	1084.60
690.06	1084.60
690.40	1081.09
690.74	1078.75
691.08	1084.37
691.41	1093.73
691.75	1088.58
692.09	1086.71
692.43	1084.60
692.76	1086.01
693.10	1082.73
693.44	1084.84
693.78	1074.31
694.11	1078.99
694.45	1089.99
694.79	1086.71
695.13	1086.01
695.46	1095.60
695.80	1086.24
696.14	1079.92
696.48	1079.22
696.81	1095.60
697.15	1096.07
697.49	1091.86
697.82	1089.75
698.16	1081.56
698.50	1071.97
698.83	1070.33
699.17	1067.05
699.51	1074.31
699.84	1083.67
700.18	1078.05
700.52	1080.16
700.85	1096.54
701.19	1080.86
701.53	1083.43
701.86	1103.56
702.20	1104.97
702.54	1092.80
702.87	1104.26
703.21	1099.35
703.55	1084.60
703.88	1085.07
704.22	1091.63
704.55	1093.73
704.89	1091.39
705.23	1083.20
705.56	1084.37
705.90	1087.88
706.23	1085.54
706.57	1089.99
706.91	1095.14
707.24	1084.37
707.58	1080.16
707.91	1092.80
708.25	1091.16
708.58	1097.71
708.92	1095.37
709.26	1101.92
709.59	1084.37
709.93	1079.92
710.26	1069.86
710.60	1074.31
710.93	1066.11
711.27	1073.37
711.60	1090.46
711.94	1088.82
712.27	1093.03
712.61	1088.35
712.94	1082.50
713.28	1059.09
713.61	1067.75
713.95	1058.39
714.28	1069.16
714.62	1069.39
714.95	1080.39
715.29	1080.63
715.62	1082.73
715.96	1080.16
716.29	1076.65
716.63	1075.71
716.96	1066.35
717.29	1074.31
717.63	1066.82
717.96	1071.50
718.30	1071.73
718.63	1076.41
718.97	1072.43
719.30	1069.16
719.63	1063.77
719.97	1056.05
720.30	1063.31
720.64	1066.35
720.97	1067.99
721.30	1073.14
721.64	1079.69
721.97	1067.05
722.31	1069.86
722.64	1076.88
722.97	1076.41
723.31	1075.71
723.64	1081.56
723.97	1074.77
724.31	1067.99
724.64	1070.80
724.98	1072.43
725.31	1077.82
725.64	1080.16
725.98	1092.80
726.31	1089.52
726.64	1092.33
726.97	1086.48
727.31	1083.90
727.64	1078.05
727.97	1072.20
728.31	1072.67
728.64	1078.28
728.97	1072.20
729.31	1070.33
729.64	1073.14
729.97	1067.28
730.30	1065.65
730.64	1073.60
730.97	1074.77
731.30	1094.20
731.63	1105.67
731.97	1098.88
732.30	1099.82
732.63	1099.35
732.96	1089.75
733.30	1072.67
733.63	1065.18
733.96	1062.60
734.29	1072.20
734.63	1071.03
734.96	1081.33
735.29	1096.31
735.62	1103.09
735.95	1087.18
736.29	1087.18
736.62	1081.56
736.95	1074.54
737.28	1070.09
737.61	1075.01
737.94	1070.09
738.28	1076.88
738.61	1084.37
738.94	1077.11
739.27	1081.09
739.60	1079.22
739.93	1080.16
740.27	1074.54
740.60	1086.71
740.93	1081.80
741.26	1077.35
741.59	1067.52
741.92	1070.56
742.25	1066.11
742.58	1067.05
742.91	1069.62
743.25	1076.41
743.58	1078.99
743.91	1077.11
744.24	1090.22
744.57	1097.01
744.90	1100.99
745.23	1100.52
745.56	1100.99
745.89	1087.65
746.22	1087.41
746.55	1087.65
746.88	1082.73
747.21	1082.50
747.54	1082.97
747.87	1078.28
748.20	1075.71
748.53	1084.37
748.87	1086.24
749.20	1090.92
749.53	1089.99
749.86	1087.18
750.19	1075.48
750.52	1076.41
750.85	1074.31
751.18	1079.92
751.51	1083.43
751.84	1086.94
752.16	1086.24
752.49	1086.24
752.82	1080.86
753.15	1074.77
753.48	1075.71
753.81	1067.52
754.14	1070.33
754.47	1070.09
754.80	1071.50
755.13	1069.16
755.46	1074.77
755.79	1065.65
756.12	1071.03
756.45	1074.07
756.78	1076.88
757.11	1079.22
757.43	1087.88
757.76	1080.63
758.09	1072.43
758.42	1072.67
758.75	1074.31
759.08	1078.52
759.41	1080.63
759.74	1087.65
760.07	1078.28
760.39	1073.37
760.72	1064.01
761.05	1063.77
761.38	1067.28
761.71	1081.33
762.04	1083.90
762.36	1079.92
762.69	1084.84
763.02	1080.63
763.35	1074.77
763.68	1073.84
764.01	1072.90
764.33	1077.82
764.66	1071.97
764.99	1072.90
765.32	1071.26
765.65	1078.52
765.97	1073.84
766.30	1081.09
766.63	1087.65
766.96	1092.33
767.28	1093.50
767.61	1087.88
767.94	1085.07
768.27	1078.05
768.59	1076.65
768.92	1078.28
769.25	1084.14
769.58	1080.16
769.90	1082.50
770.23	1081.33
770.56	1078.99
770.89	1077.35
771.21	1085.07
771.54	1088.58
771.87	1080.39
772.19	1085.77
772.52	1080.16
772.85	1071.50
773.17	1068.69
773.50	1075.48
773.83	1067.05
774.15	1072.43
774.48	1077.11
774.81	1071.03
775.13	1074.54
775.46	1080.39
775.79	1083.43
776.11	1075.71
776.44	1084.37
776.77	1089.52
777.09	1082.26
777.42	1086.48
777.74	1086.48
778.07	1084.84
778.40	1078.75
778.72	1085.54
779.05	1077.58
779.37	1081.09
779.70	1080.86
780.03	1075.48
780.35	1066.35
780.68	1059.79
781.00	1063.54
781.33	1060.96
781.65	1076.65
781.98	1085.54
782.31	1090.69
782.63	1099.12
782.96	1099.35
783.28	1095.60
783.61	1099.82
783.93	1095.37
784.26	1079.69
784.58	1075.71
784.91	1068.45
785.23	1054.65
785.56	1067.28
785.88	1079.46
786.21	1088.12
786.53	1092.33
786.86	1104.26
787.18	1104.73
787.51	1094.20
787.83	1087.88
788.16	1083.67
788.48	1075.94
788.81	1072.20
789.13	1093.73
789.46	1096.54
789.78	1094.20
790.10	1095.37
790.43	1088.82
790.75	1072.43
791.08	1063.54
791.40	1071.26
791.73	1079.22
792.05	1092.33
792.37	1090.46
792.70	1099.82
793.02	1095.14
793.35	1075.71
793.67	1071.26
793.99	1068.45
794.32	1069.16
794.64	1067.28
794.96	1079.46
795.29	1060.96
795.61	1064.94
795.93	1068.92
796.26	1071.73
796.58	1078.99
796.91	1093.73
797.23	1097.24
797.55	1092.56
797.87	1093.97
798.20	1079.22
798.52	1078.52
798.84	1070.56
799.17	1072.43
799.49	1074.77
799.81	1085.77
800.14	1087.18
800.46	1093.50
800.78	1097.71
801.10	1094.67
801.43	1093.50
801.75	1086.48
802.07	1086.24
802.40	1063.77
802.72	1060.96
803.04	1058.39
803.36	1064.01
803.69	1078.28
804.01	1089.52
804.33	1092.56
804.65	1100.05
804.97	1113.39
805.30	1102.86
805.62	1097.95
805.94	1093.03
806.26	1089.52
806.58	1082.73
806.91	1083.90
807.23	1089.75
807.55	1093.03
807.87	1096.78
808.19	1087.65
808.52	1076.18
808.84	1081.33
809.16	1076.18
809.48	1079.22
809.80	1079.22
810.12	1086.71
810.44	1079.92
810.77	1085.31
811.09	1082.26
811.41	1088.58
811.73	1087.18
812.05	1090.46
812.37	1086.24
812.69	1075.01
813.01	1071.50
813.33	1070.56
813.66	1069.86
813.98	1077.35
814.30	1076.18
814.62	1073.37
814.94	1078.52
815.26	1067.75
815.58	1058.86
815.90	1066.35
816.22	1072.67
816.54	1070.56
816.86	1080.86
817.18	1081.80
817.50	1083.20
817.82	1072.90
818.14	1077.11
818.46	1075.71
818.78	1084.37
819.10	1082.50
819.42	1089.29
819.74	1082.97
820.06	1086.48
820.38	1085.77
820.70	1086.71
821.02	1086.01
821.34	1087.88
821.66	1082.50
821.98	1082.97
822.30	1079.46
822.62	1080.63
822.94	1081.09
823.26	1081.56
823.58	1069.39
823.90	1082.97
824.22	1089.99
824.54	1084.14
824.86	1093.26
825.18	1094.90
825.50	1075.71
825.81	1076.65
826.13	1080.63
826.45	1085.54
826.77	1088.58
827.09	1095.84
827.41	1088.58
827.73	1096.78
828.05	1077.82
828.36	1089.29
828.68	1091.86
829.00	1096.78
829.32	1088.35
829.64	1097.48
829.96	1074.07
830.28	1074.54
830.59	1082.97
830.91	1078.99
831.23	1076.65
831.55	1088.58
831.87	1089.52
832.19	1067.99
832.50	1074.07
832.82	1074.77
833.14	1072.90
833.46	1065.88
833.78	1072.20
834.09	1064.71
834.41	1064.71
834.73	1071.03
835.05	1072.43
835.36	1060.50
835.68	1071.97
836.00	1078.28
836.32	1074.07
836.63	1078.52
836.95	1084.14
837.27	1080.63
837.59	1084.84
837.90	1081.80
838.22	1074.07
838.54	1082.73
838.85	1083.43
839.17	1068.22
839.49	1070.09
839.80	1075.94
840.12	1084.84
840.44	1084.60
840.76	1090.69
841.07	1092.33
841.39	1087.41
841.71	1082.50
842.02	1086.24
842.34	1087.65
842.65	1082.50
842.97	1077.82
843.29	1069.39
843.60	1057.22
843.92	1053.71
844.24	1061.67
844.55	1069.86
844.87	1073.14
845.18	1082.50
845.50	1087.18
845.82	1079.69
846.13	1079.46
846.45	1077.35
846.76	1077.11
847.08	1077.35
847.40	1071.03
847.71	1072.20
848.03	1067.75
848.34	1059.09
848.66	1056.52
848.97	1069.86
849.29	1071.03
849.60	1078.52
849.92	1080.86
850.24	1077.35
850.55	1071.26
850.87	1069.62
851.18	1067.75
851.50	1069.62
851.81	1071.03
852.13	1059.09
852.44	1056.99
852.76	1061.43
853.07	1050.20
853.39	1045.99
853.70	1056.28
854.01	1061.20
854.33	1059.33
854.64	1072.20
854.96	1075.48
855.27	1083.20
855.59	1071.97
855.90	1066.35
856.22	1068.92
856.53	1074.07
856.84	1070.56
857.16	1068.45
857.47	1065.88
857.79	1057.92
858.10	1050.90
858.41	1051.13
858.73	1062.14
859.04	1072.43
859.36	1076.65
859.67	1080.39
859.98	1085.77
860.30	1082.03
860.61	1074.54
860.92	1066.58
861.24	1065.65
861.55	1061.90
861.87	1063.07
862.18	1059.79
862.49	1065.65
862.81	1070.09
863.12	1071.03
863.43	1076.41
863.74	1086.01
864.06	1081.56
864.37	1078.05
864.68	1076.41
865.00	1075.24
865.31	1068.22
865.62	1074.07
865.94	1073.14
866.25	1076.65
866.56	1073.84
866.87	1074.31
867.19	1075.24
867.50	1075.01
867.81	1072.43
868.12	1067.05
868.44	1071.73
868.75	1076.18
869.06	1078.99
869.37	1078.05
869.68	1090.92
870.00	1093.73
870.31	1092.80
870.62	1093.03
870.93	1093.03
871.24	1089.05
871.56	1091.39
871.87	1081.80
872.18	1083.67
872.49	1084.60
872.80	1084.60
873.12	1077.11
873.43	1083.90
873.74	1082.97
874.05	1080.16
874.36	1071.26
874.67	1074.31
874.98	1071.97
875.29	1077.35
875.61	1075.01
875.92	1083.20
876.23	1081.80
876.54	1080.86
876.85	1070.09
877.16	1081.09
877.47	1081.80
877.78	1075.71
878.09	1069.86
878.40	1067.99
878.72	1055.58
879.03	1056.75
879.34	1066.82
879.65	1079.46
879.96	1090.22
880.27	1089.29
880.58	1080.16
880.89	1088.58
881.20	1088.12
881.51	1086.48
881.82	1100.75
882.13	1107.78
882.44	1089.05
882.75	1084.84
883.06	1087.18
883.37	1074.07
883.68	1064.71
883.99	1069.86
884.30	1065.18
884.61	1060.50
884.92	1061.90
885.23	1065.65
885.54	1060.50
885.85	1069.39
886.16	1066.35
886.47	1060.96
886.78	1057.69
887.08	1060.50
887.39	1061.67
887.70	1057.22
888.01	1068.22
888.32	1078.75
888.63	1079.22
888.94	1076.88
889.25	1080.39
889.56	1085.54
889.87	1083.67
890.17	1090.46
890.48	1088.82
890.79	1089.75
891.10	1084.60
891.41	1086.71
891.72	1076.18
892.03	1074.31
892.34	1074.07
892.64	1070.56
892.95	1066.11
893.26	1083.43
893.57	1090.46
893.88	1092.56
894.18	1094.20
894.49	1099.58
894.80	1091.16
895.11	1089.75
895.42	1087.65
895.72	1086.71
896.03	1079.69
896.34	1071.26
896.65	1061.90
896.96	1062.84
897.26	1065.88
897.57	1068.45
897.88	1064.24
898.19	1075.48
898.49	1076.41
898.80	1071.50
899.11	1068.22
899.41	1074.07
899.72	1068.69
900.03	1063.54
900.34	1057.45
900.64	1067.52
900.95	1067.52
901.26	1067.75
901.56	1083.67
901.87	1090.69
902.18	1081.80
902.48	1084.14
902.79	1086.24
903.10	1077.35
903.40	1075.48
903.71	1072.20
904.02	1081.09
904.32	1078.75
904.63	1075.71
904.94	1078.28
905.24	1082.97
905.55	1081.09
905.85	1075.94
906.16	1075.94
906.47	1076.41
906.77	1072.43
907.08	1064.48
907.38	1062.14
907.69	1054.41
908.00	1052.77
908.30	1057.69
908.61	1067.99
908.91	1074.07
909.22	1083.43
909.52	1079.92
909.83	1078.99
910.14	1067.99
910.44	1071.73
910.75	1071.03
911.05	1081.33
911.36	1081.80
911.66	1079.22
911.97	1078.05
912.27	1073.37
912.58	1060.03
912.88	1064.71
913.19	1065.65
913.49	1068.22
913.80	1072.43
914.10	1086.48
914.41	1078.52
914.71	1084.37
915.01	1082.50
915.32	1078.99
915.62	1071.03
915.93	1067.75
916.23	1063.31
916.54	1053.94
916.84	1067.28
917.15	1072.20
917.45	1078.75
917.75	1086.94
918.06	1096.31
918.36	1088.82
918.67	1095.14
918.97	1092.80
919.27	1097.48
919.58	1092.80
919.88	1092.09
920.18	1079.69
920.49	1080.63
920.79	1072.90
921.10	1078.52
921.40	1075.94
921.70	1078.28
922.01	1074.31
922.31	1068.22
922.61	1062.37
922.92	1058.39
923.22	1061.67
923.52	1058.16
923.82	1065.88
924.13	1072.20
924.43	1072.20
924.73	1083.20
925.04	1089.05
925.34	1089.99
925.64	1085.77
925.94	1102.16
926.25	1088.12
926.55	1095.14
926.85	1086.71
927.15	1085.31
927.46	1085.31
927.76	1082.97
928.06	1073.14
928.36	1066.35
928.67	1066.58
928.97	1055.11
929.27	1053.48
929.57	1055.11
929.87	1065.41
930.18	1070.09
930.48	1078.05
930.78	1075.71
931.08	1079.92
931.38	1081.33
931.69	1074.77
931.99	1065.65
932.29	1078.28
932.59	1078.28
932.89	1073.60
933.19	1074.31
933.49	1073.60
933.80	1076.41
934.10	1075.48
934.40	1081.56
934.70	1080.86
935.00	1080.63
935.30	1064.01
935.60	1065.18
935.90	1062.14
936.20	1061.43
936.50	1058.62
936.81	1070.80
937.11	1065.41
937.41	1067.99
937.71	1059.79
938.01	1060.50
938.31	1050.67
938.61	1049.96
938.91	1057.22
939.21	1067.75
939.51	1065.65
939.81	1067.05
940.11	1075.01
940.41	1073.37
940.71	1075.24
941.01	1086.24
941.31	1092.09
941.61	1090.69
941.91	1077.35
942.21	1074.77
942.51	1072.90
942.81	1074.54
943.11	1075.48
943.41	1084.84
943.71	1080.63
944.01	1074.31
944.31	1076.41
944.61	1078.75
944.90	1081.09
945.20	1082.03
945.50	1089.52
945.80	1079.46
946.10	1070.09
946.40	1062.14
946.70	1066.82
947.00	1068.69
947.30	1076.88
947.60	1081.33
947.89	1087.41
948.19	1086.48
948.49	1074.77
948.79	1079.46
949.09	1083.90
949.39	1079.46
949.69	1081.33
949.98	1093.26
950.28	1092.56
950.58	1087.18
950.88	1086.94
951.18	1074.77
951.48	1066.35
951.77	1067.52
952.07	1063.54
952.37	1058.86
952.67	1070.56
952.97	1075.24
953.26	1062.60
953.56	1067.52
953.86	1077.82
954.16	1076.65
954.45	1071.50
954.75	1085.54
955.05	1096.78
955.35	1095.84
955.64	1089.29
955.94	1101.92
956.24	1093.73
956.54	1091.39
956.83	1088.12
957.13	1096.31
957.43	1086.94
957.72	1077.35
958.02	1067.75
958.32	1071.03
958.61	1073.60
958.91	1071.50
959.21	1080.39
959.50	1071.26
959.80	1074.31
960.10	1077.82
960.39	1075.94
960.69	1069.39
960.99	1084.14
961.28	1080.39
961.58	1075.94
961.87	1081.09
962.17	1083.67
962.47	1086.24
962.76	1081.80
963.06	1087.41
963.36	1084.84
963.65	1086.71
963.95	1084.84
964.24	1092.56
964.54	1085.31
964.83	1084.60
965.13	1085.07
965.42	1077.82
965.72	1070.80
966.02	1074.31
966.31	1069.16
966.61	1074.31
966.90	1071.73
967.20	1070.80
967.49	1075.24
967.79	1083.90
968.08	1082.97
968.38	1096.54
968.67	1091.16
968.97	1081.33
969.26	1071.26
969.56	1069.86
969.85	1063.07
970.15	1072.90
970.44	1075.01
970.74	1077.35
971.03	1075.48
971.32	1074.77
971.62	1068.92
971.91	1076.41
972.21	1084.37
972.50	1082.73
972.80	1087.41
973.09	1094.43
973.38	1089.29
973.68	1097.48
973.97	1107.07
974.27	1100.99
974.56	1094.20
974.85	1091.63
975.15	1078.99
975.44	1073.14
975.73	1077.35
976.03	1072.43
976.32	1068.22
976.61	1073.37
976.91	1075.71
977.20	1073.84
977.49	1082.03
977.79	1085.31
978.08	1086.01
978.37	1081.56
978.67	1082.97
978.96	1085.77
979.25	1076.65
979.55	1068.92
979.84	1069.39
980.13	1057.92
980.42	1056.99
980.72	1067.99
981.01	1076.41
981.30	1081.56
981.59	1095.37
981.89	1091.39
982.18	1083.43
982.47	1077.82
982.76	1074.77
983.06	1066.82
983.35	1068.45
983.64	1075.24
983.93	1079.22
984.22	1086.94
984.52	1094.20
984.81	1099.12
985.10	1101.22
985.39	1093.26
985.68	1079.46
985.97	1067.28
986.27	1058.39
986.56	1059.09
986.85	1067.28
987.14	1080.86
987.43	1101.92
987.72	1106.61
988.01	1108.71
988.31	1107.07
988.60	1097.71
988.89	1086.24
989.18	1092.80
989.47	1093.03
989.76	1088.35
990.05	1091.63
990.34	1089.29
990.63	1079.22
990.92	1071.50
991.21	1073.60
991.51	1061.67
991.80	1055.58
992.09	1065.18
992.38	1077.82
992.67	1072.43
992.96	1080.16
993.25	1088.58
993.54	1084.60
993.83	1070.80
994.12	1079.69
994.41	1082.97
994.70	1086.24
994.99	1077.35
995.28	1077.82
995.57	1081.09
995.86	1080.39
996.15	1069.16
996.44	1077.82
996.73	1081.56
997.02	1074.54
997.31	1079.92
997.59	1088.12
997.88	1080.86
998.17	1079.92
998.46	1084.60
998.75	1074.07
999.04	1062.14
999.33	1074.31
999.62	1077.58
999.91	1078.52
1000.20	1086.24
1000.49	1098.88
1000.77	1093.97
1001.06	1086.24
1001.35	1084.14
1001.64	1084.60
1001.93	1083.20
1002.22	1077.35
1002.51	1081.56
1002.79	1080.39
1003.08	1078.28
1003.37	1075.01
1003.66	1083.20
1003.95	1089.29
1004.23	1086.71
1004.52	1089.52
1004.81	1093.26
1005.10	1082.50
1005.39	1081.56
1005.67	1087.41
1005.96	1086.48
1006.25	1092.56
1006.54	1095.37
1006.83	1085.77
1007.11	1080.16
1007.40	1072.67
1007.69	1068.22
1007.97	1076.65
1008.26	1083.67
1008.55	1081.09
1008.84	1083.20
1009.12	1078.28
1009.41	1083.90
1009.70	1092.09
1009.98	1100.52
1010.27	1101.69
1010.56	1102.16
1010.85	1084.14
1011.13	1071.26
1011.42	1075.01
1011.71	1072.90
1011.99	1064.71
1012.28	1073.84
1012.56	1065.41
1012.85	1060.73
1013.14	1069.62
1013.42	1079.92
1013.71	1075.01
1014.00	1090.69
1014.28	1093.03
1014.57	1089.05
1014.85	1090.92
1015.14	1087.18
1015.43	1078.52
1015.71	1073.14
1016.00	1069.16
1016.28	1063.77
1016.57	1069.86
1016.85	1073.60
1017.14	1070.56
1017.43	1069.86
1017.71	1070.56
1018.00	1077.35
1018.28	1073.37
1018.57	1072.20
1018.85	1070.80
1019.14	1064.71
1019.42	1059.79
1019.71	1059.33
1019.99	1067.75
1020.28	1061.67
1020.56	1071.73
1020.85	1066.58
1021.13	1067.52
1021.42	1067.28
1021.70	1078.05
1021.99	1076.88
1022.27	1085.54
1022.55	1088.35
1022.84	1101.22
>>>>>End Processed Spectral Data<<<<<
